SUBJECT	SESSION	RUN	TRIAL	73KID	10KID	TIME	ISOLD	ISCORRECT	RT	CHANGEMIND	MEMORYRECENT	MEMORYFIRST	ISOLDCURRENT	ISCORRECTCURRENT	TOTAL1	TOTAL2	BUTTON	MISSINGDATA
5	1	1	1	46003	626	0.70221080060582607985	0	1	1410.0942869990831241	0	NaN	NaN	0	1	1	0	1	0
5	1	1	2	5737	5013	0.70225713413674384356	0	1	497.39211599808186293	0	NaN	NaN	0	1	1	0	1	0
5	1	1	3	9204	4850	0.70230337872635573149	0	1	602.58765499747823924	0	NaN	NaN	0	1	1	0	1	0
5	1	1	4	33363	8823	0.70234972808975726366	0	1	432.51378899731207639	0	NaN	NaN	0	1	1	0	1	0
5	1	1	5	64487	9538	0.70239596394822001457	0	1	552.8973930049687624	0	NaN	NaN	0	1	1	0	1	0
5	1	1	6	46788	6061	0.70244233089033514261	0	1	534.00412999326363206	0	NaN	NaN	0	1	1	0	1	0
5	1	1	7	49200	4421	0.70248856255784630775	0	1	541.67023100308142602	0	NaN	NaN	0	1	1	0	1	0
5	1	1	8	36387	3858	0.70253486442379653454	0	1	539.05069800384808332	0	NaN	NaN	0	1	1	0	1	0
5	1	1	9	28377	8124	0.70258114475291222334	0	1	446.96844099962618202	0	NaN	NaN	0	1	1	0	1	0
5	1	1	10	22988	4843	0.70262744894716888666	0	1	544.83735600661020726	0	NaN	NaN	0	1	1	0	1	0
5	1	1	11	25602	7941	0.70267373661044985056	0	1	1131.1897020059404895	0	NaN	NaN	0	1	1	0	1	0
5	1	1	12	50992	4523	0.70272003940772265196	0	1	865.41205299727153033	0	NaN	NaN	0	1	1	0	1	0
5	1	1	13	14726	1070	0.70281262334901839495	0	1	701.71970299270469695	0	NaN	NaN	0	1	1	0	1	0
5	1	1	14	63354	9588	0.7028589185792952776	0	1	510.04325499525293708	0	NaN	NaN	0	1	1	0	1	0
5	1	1	15	15072	4623	0.70290520880371332169	0	1	632.94265000149607658	0	NaN	NaN	0	1	1	0	1	0
5	1	1	16	56525	3185	0.70295150554738938808	0	1	534.66828199452720582	0	NaN	NaN	0	1	1	0	1	0
5	1	1	17	18499	4586	0.70299779565539211035	0	1	876.22343099792487919	0	NaN	NaN	0	1	1	0	1	0
5	1	1	18	2781	1009	0.7030440878588706255	0	1	736.20434899930842221	0	NaN	NaN	0	1	1	0	1	0
5	1	1	19	14435	8634	0.70309038832783699036	0	1	849.18259699770715088	0	NaN	NaN	0	1	1	0	1	0
5	1	1	20	64658	9648	0.70313667843583971262	0	1	572.5393870088737458	0	NaN	NaN	0	1	1	0	1	0
5	1	1	21	71054	9425	0.70318297622725367546	0	1	877.64950700511690229	0	NaN	NaN	0	1	1	0	1	0
5	1	1	22	46530	1344	0.70322926470544189215	0	1	545.56961500202305615	0	NaN	NaN	0	1	1	0	1	0
5	1	1	23	33510	7441	0.70332175225485116243	0	1	945.24822699895594269	0	NaN	NaN	0	1	1	0	1	0
5	1	1	24	13115	3902	0.70336804504040628672	0	1	992.21642001066356897	0	NaN	NaN	0	1	1	0	1	0
5	1	1	25	35731	8795	0.70341433689463883638	0	1	789.93181299301795661	0	NaN	NaN	0	1	1	0	1	0
5	1	1	26	42209	1840	0.70346063445322215557	0	1	702.08540699968580157	0	NaN	NaN	0	1	1	0	1	0
5	1	1	27	34281	1356	0.70350692770443856716	0	1	656.04675799841061234	0	NaN	NaN	0	1	1	0	1	0
5	1	1	28	67221	5506	0.703553219442255795	0	1	614.17853299644775689	0	NaN	NaN	0	1	1	0	1	0
5	1	1	29	48618	666	0.70359951350837945938	0	1	710.94080100010614842	0	NaN	NaN	0	1	1	0	1	0
5	1	1	30	65907	8240	0.70364581316243857145	0	1	912.57065099489409477	0	NaN	NaN	0	1	1	0	1	0
5	1	1	31	9259	7232	0.70369210501667112112	0	1	680.60094599786680192	0	NaN	NaN	0	1	1	0	1	0
5	1	1	32	19320	5691	0.70373839884996414185	0	1	908.65846000087913126	0	NaN	NaN	0	1	1	0	1	0
5	1	1	33	32258	6661	0.70378468895796686411	0	1	815.66251299227587879	0	NaN	NaN	0	1	1	0	1	0
5	1	1	34	4667	2400	0.70383098791353404522	0	1	929.99064500327222049	0	NaN	NaN	0	1	1	0	1	0
5	1	1	35	71437	2252	0.70392357511445879936	0	1	671.54776499955914915	0	NaN	NaN	0	1	1	0	1	0
5	1	1	36	44981	612	0.70396986533887684345	0	1	884.1143520112382248	0	NaN	NaN	0	1	1	0	1	0
5	1	1	37	45811	1609	0.70401616394519805908	0	1	603.22061499755363911	0	NaN	NaN	0	1	1	0	1	0
5	1	1	38	40634	3579	0.70406244893092662096	0	1	502.950573994894512	0	NaN	NaN	0	1	1	0	1	0
5	1	1	39	1701	1703	0.70410874823573976755	0	1	569.39884999883361161	0	NaN	NaN	0	1	1	0	1	0
5	1	1	40	9596	9976	0.70415505045093595982	0	1	762.35101300699170679	0	NaN	NaN	0	1	1	0	1	0
5	1	1	41	8174	5770	0.70420133578591048717	0	1	556.48309299431275576	0	NaN	NaN	0	1	1	0	1	0
5	1	1	42	41305	8748	0.70424763008486479521	0	1	1145.2240029902895913	0	NaN	NaN	0	1	1	0	1	0
5	1	1	43	27110	9202	0.70429392822552472353	0	1	905.48569499514997005	0	NaN	NaN	0	1	1	0	1	0
5	1	1	44	53651	3123	0.70434022333938628435	0	1	721.17643200908787549	0	NaN	NaN	0	1	1	0	1	0
5	1	1	45	32626	436	0.70438651484437286854	0	1	1138.57965701026842	0	NaN	NaN	0	1	1	0	1	0
5	1	1	46	18499	4586	0.70447910495568066835	1	1	1005.7247040094807744	0	28	NaN	1	1	0	1	2	0
5	1	1	47	53723	1499	0.70452530018519610167	0	1	869.61855400295462459	0	NaN	NaN	0	1	1	0	1	0
5	1	1	48	3134	2872	0.7045715962303802371	0	1	750.05367599078454077	0	NaN	NaN	0	1	1	0	1	0
5	1	1	49	24399	9173	0.70461788319516927004	0	1	938.41823100228793919	0	NaN	NaN	0	1	1	0	1	0
5	1	1	50	29328	2665	0.70466418506111949682	0	1	775.36076099204365164	0	NaN	NaN	0	1	1	0	1	0
5	1	1	51	42507	1045	0.70471047214232385159	0	1	684.43075301183853298	0	NaN	NaN	0	1	1	0	1	0
5	1	1	52	35808	1974	0.70475676842033863068	0	1	805.63837299996521324	0	NaN	NaN	0	1	1	0	1	0
5	1	1	53	67433	2268	0.70480306632816791534	0	1	702.1022569970227778	0	NaN	NaN	0	1	1	0	1	0
5	1	1	54	65452	7771	0.70484935515560209751	0	1	646.28796200850047171	0	NaN	NaN	0	1	1	0	1	0
5	1	1	55	64010	6336	0.70494194119237363338	0	1	664.6728329942561686	0	NaN	NaN	0	1	1	0	1	0
5	1	1	56	53053	727	0.70498824375681579113	0	1	703.81928101414814591	0	NaN	NaN	0	1	1	0	1	0
5	1	1	57	4931	40	0.70503452920820564032	0	1	1103.5971590026747435	0	NaN	NaN	0	1	1	0	1	0
5	1	1	58	4491	6000	0.70508082385640591383	0	1	837.136497997562401	0	NaN	NaN	0	1	1	0	1	0
5	1	1	59	2386	7046	0.70512711815536022186	0	1	852.25149200414307415	0	NaN	NaN	0	1	1	0	1	0
5	1	1	60	67891	1607	0.70517342002131044865	0	1	692.7397589897736907	0	NaN	NaN	0	1	1	0	1	0
5	1	1	61	25759	2132	0.70521971466951072216	0	1	692.32943400857038796	0	NaN	NaN	0	1	1	0	1	0
5	1	1	62	15463	5352	0.70526600559242069721	0	1	571.8107510037953034	0	NaN	NaN	0	1	1	0	1	0
5	1	1	63	64451	2514	0.70531229465268552303	0	1	732.67616599332541227	0	NaN	NaN	0	1	1	0	1	0
5	1	2	1	38390	5730	0.70700761163607239723	0	1	830.99958600359968841	0	NaN	NaN	0	1	1	0	1	0
5	1	2	2	38040	4135	0.70705394481774419546	0	1	746.25286400259938091	0	NaN	NaN	0	1	1	0	1	0
5	1	2	3	30022	5169	0.70710020686965435743	0	1	714.59382699686102569	0	NaN	NaN	0	1	1	0	1	0
5	1	2	4	63152	5821	0.70714654040057212114	0	1	800.55704200640320778	0	NaN	NaN	0	1	1	0	1	0
5	1	2	5	30614	8842	0.70719278894830495119	0	1	687.8096510044997558	0	NaN	NaN	0	1	1	0	1	0
5	1	2	6	38040	4135	0.70723912806715816259	1	1	983.80518201156519353	0	3	NaN	1	1	0	1	2	0
5	1	2	7	54871	4990	0.70728538208641111851	0	1	571.77640100417193025	0	NaN	NaN	0	1	1	0	1	0
5	1	2	8	37767	9955	0.70733172970358282328	0	1	931.566343002486974	0	NaN	NaN	0	1	1	0	1	0
5	1	2	9	26314	7331	0.70737797161564230919	0	1	603.88310700363945216	0	NaN	NaN	0	1	1	0	1	0
5	1	2	10	26328	3470	0.70742432726547122002	0	1	624.78584500786382705	0	NaN	NaN	0	1	1	0	1	0
5	1	2	11	16381	9913	0.70747056254185736179	0	1	667.27513099613133818	0	NaN	NaN	0	1	1	0	1	0
5	1	2	12	40288	3207	0.7075631474144756794	0	1	714.48586299084126949	0	NaN	NaN	0	1	1	0	1	0
5	1	2	13	40283	5799	0.70760945125948637724	0	1	704.2382929939776659	0	NaN	NaN	0	1	1	0	1	0
5	1	2	14	11393	4068	0.70765573007520288229	0	1	518.34890700411051512	0	NaN	NaN	0	1	1	0	1	0
5	1	2	15	52172	2204	0.70770203426945954561	0	1	562.55625199992209673	0	NaN	NaN	0	1	1	0	1	0
5	1	2	16	48572	7081	0.70774832379538565874	0	1	705.4286470083752647	0	NaN	NaN	0	1	1	0	1	0
5	1	2	17	68113	3632	0.70779462286736816168	0	1	616.01545099983923137	0	NaN	NaN	0	1	1	0	1	0
5	1	2	18	40387	3444	0.70784091216046363115	0	1	629.98601399885956198	0	NaN	NaN	0	1	1	0	1	0
5	1	2	19	63410	2840	0.70788721495773643255	0	1	1016.4668530051130801	0	NaN	NaN	0	1	1	0	1	0
5	1	2	20	35354	1538	0.70793349319137632847	0	1	649.67946401156950742	0	NaN	NaN	0	1	1	0	1	0
5	1	2	21	43927	8951	0.7080260890070348978	0	1	805.13651100045535713	0	NaN	NaN	0	1	1	0	1	0
5	1	2	22	42404	8009	0.70807237725239247084	0	1	817.66591899213381112	0	NaN	NaN	0	1	1	0	1	0
5	1	2	23	742	5772	0.70811867737211287022	0	1	702.44068300235085189	0	NaN	NaN	0	1	1	0	1	0
5	1	2	24	33550	5200	0.70816497912164777517	0	1	1012.3259870015317574	0	NaN	NaN	0	1	1	0	1	0
5	1	2	25	64735	7984	0.70821126608643680811	0	1	844.71342900360468775	0	NaN	NaN	0	1	1	0	1	0
5	1	2	26	33777	9865	0.70825756352860480547	0	1	832.87233600276522338	0	NaN	NaN	0	1	1	0	1	0
5	1	2	27	64906	7367	0.70830375747755169868	0	1	713.97405699826776981	0	NaN	NaN	0	1	1	0	1	0
5	1	2	28	32626	436	0.70835004968103021383	1	1	954.1560889920219779	0	45	NaN	1	1	0	1	2	0
5	1	2	29	39664	3014	0.70839634689036756754	0	1	1026.2539240065962076	0	NaN	NaN	0	1	1	0	1	0
5	1	2	30	61327	3569	0.70844263141043484211	0	1	870.72243999864440411	0	NaN	NaN	0	1	1	0	1	0
5	1	2	31	52348	6871	0.70853522210381925106	0	1	689.54696699802298099	0	NaN	NaN	0	1	1	0	1	0
5	1	2	32	23329	4263	0.70858152094297111034	0	1	692.51410099968779832	0	NaN	NaN	0	1	1	0	1	0
5	1	2	33	17360	3694	0.70862781221512705088	0	1	958.14847599831409752	0	NaN	NaN	0	1	1	0	1	0
5	1	2	34	17327	5322	0.70867410721257328987	0	1	602.82596200704574585	0	NaN	NaN	0	1	1	0	1	0
5	1	2	35	66102	4061	0.70872040849644690752	0	1	1062.5576739985262975	0	NaN	NaN	0	1	1	0	1	0
5	1	2	36	62232	7985	0.70876668975688517094	0	1	739.77554700104519725	0	NaN	NaN	0	1	1	0	1	0
5	1	2	37	48920	6041	0.70881298976019024849	0	1	859.67306399834342301	0	NaN	NaN	0	1	1	0	1	0
5	1	2	38	9966	6142	0.7088592856889590621	0	1	825.35238300624769181	0	NaN	NaN	0	1	1	0	1	0
5	1	2	39	65105	6843	0.70890557288657873869	0	1	942.94878900109324604	0	NaN	NaN	0	1	1	0	1	0
5	1	2	40	25329	7442	0.70895187230780720711	0	1	872.5799840030958876	0	NaN	NaN	0	1	1	0	1	0
5	1	2	41	49747	1108	0.70904446241911500692	0	1	2054.619161004666239	0	NaN	NaN	0	1	1	0	1	0
5	1	2	42	47838	9936	0.70909075636882334948	0	1	821.42758699774276465	0	NaN	NaN	0	1	1	0	1	0
5	1	2	43	66086	2757	0.70913705136626958847	0	1	727.58465800143312663	0	NaN	NaN	0	1	1	0	1	0
5	1	2	44	55714	9658	0.70918334554880857468	0	1	764.18197700695600361	0	NaN	NaN	0	1	1	0	1	0
5	1	2	45	30022	5169	0.70922963891644030809	1	1	1220.7770110107958317	0	41	NaN	1	1	0	1	2	0
5	1	2	46	19994	3376	0.70927592995576560497	0	1	726.85474400350358337	0	NaN	NaN	0	1	1	0	1	0
5	1	2	47	54266	7287	0.70932222763076424599	0	1	1740.24466700211633	0	NaN	NaN	0	1	1	0	1	0
5	1	2	48	55125	5363	0.709368519252166152	0	1	661.91370900196488947	0	NaN	NaN	0	1	1	0	1	0
5	1	2	49	16916	5834	0.70941481611225754023	0	0	1813.595254992833361	0	NaN	NaN	0	0	0	1	2	0
5	1	2	50	17315	6448	0.70946110144723206758	0	1	876.71959699946455657	0	NaN	NaN	0	1	1	0	1	0
5	1	2	51	32942	4186	0.70950740412808954716	0	1	1031.6093559958972037	0	NaN	NaN	0	1	1	0	1	0
5	1	2	52	64442	9715	0.70955360215157270432	0	1	645.78128399443812668	0	NaN	NaN	0	1	1	0	1	0
5	1	2	53	16077	1430	0.70964618830475956202	0	1	804.32057900179643184	0	NaN	NaN	0	1	1	0	1	0
5	1	2	54	16375	9621	0.7096924767829477787	0	1	1292.7690040087327361	0	NaN	NaN	0	1	1	0	1	0
5	1	2	55	41751	7112	0.70973877247888594866	0	1	714.91077600512653589	0	NaN	NaN	0	1	1	0	1	0
5	1	2	56	65821	9845	0.70978506747633218765	0	1	773.53337399836163968	0	NaN	NaN	0	1	1	0	1	0
5	1	2	57	60623	7473	0.70983136387076228857	0	1	821.0453180072363466	0	NaN	NaN	0	1	1	0	1	0
5	1	2	58	6432	60	0.70987771684303879738	0	1	761.32079200760927051	0	NaN	NaN	0	1	1	0	1	0
5	1	2	59	66086	2757	0.70992395223584026098	1	1	959.53713799826800823	0	15	NaN	1	1	0	1	2	0
5	1	2	60	50413	2704	0.70997024048119783401	0	1	949.26088600186631083	0	NaN	NaN	0	1	1	0	1	0
5	1	2	61	14435	8634	0.71001653547864407301	1	1	955.82024999021086842	0	104	NaN	1	1	0	1	2	0
5	1	2	62	3882	4900	0.7100628408370539546	0	1	1403.0754120030906051	0	NaN	NaN	0	1	1	0	1	0
5	1	3	1	43945	7336	0.71172381273936480284	0	1	848.39604700391646475	0	NaN	NaN	0	1	1	0	1	0
5	1	3	2	70336	970	0.71177011379040777683	0	1	944.9923679931089282	0	NaN	NaN	0	1	1	0	1	0
5	1	3	3	29200	4229	0.7118163952836766839	0	1	836.94331299921032041	0	NaN	NaN	0	1	1	0	1	0
5	1	3	4	32894	3770	0.71186270832549780607	0	1	751.72173298778943717	0	NaN	NaN	0	1	1	0	1	0
5	1	3	5	22276	3284	0.71190899494104087353	0	1	707.2558079962618649	0	NaN	NaN	0	1	1	0	1	0
5	1	3	6	63263	6316	0.71195529901888221502	0	1	601.15336600574664772	0	NaN	NaN	0	1	1	0	1	0
5	1	3	7	44002	1266	0.71200156921986490488	0	1	832.44599499448668212	0	NaN	NaN	0	1	1	0	1	0
5	1	3	8	36577	479	0.71204787550959736109	0	1	802.94804699951782823	0	NaN	NaN	0	1	1	0	1	0
5	1	3	9	20872	6277	0.71209415898192673922	0	1	804.28193100669886917	0	NaN	NaN	0	1	1	0	1	0
5	1	3	10	66684	9754	0.71214047656394541264	0	1	774.70630999596323818	0	NaN	NaN	0	1	1	0	1	0
5	1	3	11	60215	7300	0.71223305689636617899	0	1	889.80832800734788179	0	NaN	NaN	0	1	1	0	1	0
5	1	3	12	66178	1104	0.71227934397757053375	0	1	842.10189800069201738	0	NaN	NaN	0	1	1	0	1	0
5	1	3	13	8786	7313	0.7123256404884159565	0	1	905.49657400697469711	0	NaN	NaN	0	1	1	0	1	0
5	1	3	14	52502	3250	0.71237192477565258741	0	1	925.69696999271400273	0	NaN	NaN	0	1	1	0	1	0
5	1	3	15	45556	6726	0.71241823607124388218	0	1	687.41135999152902514	0	NaN	NaN	0	1	1	0	1	0
5	1	3	16	17810	8054	0.71246451640035957098	0	1	876.60969499847851694	0	NaN	NaN	0	1	1	0	1	0
5	1	3	17	12617	7613	0.71251082269009202719	0	1	747.12245800765231252	0	NaN	NaN	0	1	1	0	1	0
5	1	3	18	19309	6236	0.71255710918921977282	0	1	860.28826401161495596	0	NaN	NaN	0	1	1	0	1	0
5	1	3	19	2558	2259	0.7126034050015732646	0	1	771.28950999758671969	0	NaN	NaN	0	1	1	0	1	0
5	1	3	20	4636	3968	0.71264969755429774523	0	1	903.05213700048625469	0	NaN	NaN	0	1	1	0	1	0
5	1	3	21	27440	2980	0.71269599697552621365	0	1	843.6322250054217875	0	NaN	NaN	0	1	1	0	1	0
5	1	3	22	12050	9718	0.71274228591937571764	0	1	929.70621401036623865	0	NaN	NaN	0	1	1	0	1	0
5	1	3	23	30390	1550	0.71278858266305178404	0	1	912.59619100310374051	0	NaN	NaN	0	1	1	0	1	0
5	1	3	24	27440	2980	0.71283487253822386265	1	1	974.85584999958518893	0	2	NaN	1	1	0	1	2	0
5	1	3	25	12146	6274	0.71292746032122522593	0	1	771.5105400129687041	0	NaN	NaN	0	1	1	0	1	0
5	1	3	26	16739	6666	0.71297374996356666088	0	1	915.12926699942909181	0	NaN	NaN	0	1	1	0	1	0
5	1	3	27	65707	3580	0.71302004065364599228	0	1	588.7698470032773912	0	NaN	NaN	0	1	1	0	1	0
5	1	3	28	57047	791	0.71306634636130183935	0	1	1008.2448519970057532	0	NaN	NaN	0	1	1	0	1	0
5	1	3	29	65452	7771	0.71311263041570782661	1	0	685.11704300181008875	0	99	NaN	1	0	2	0	1	0
5	1	3	30	62232	7985	0.71315892657730728388	1	0	2102.6595000002998859	0	55	NaN	1	0	1	0	1	0
5	1	3	31	63154	5651	0.7132052277447655797	0	1	750.87582098785787821	0	NaN	NaN	0	1	1	0	1	0
5	1	3	32	20825	4786	0.71325152250938117504	0	1	973.41820700967218727	0	NaN	NaN	0	1	1	0	1	0
5	1	3	33	54170	5910	0.7132977192522957921	0	1	903.25748699251562357	0	NaN	NaN	0	1	1	0	1	0
5	1	3	34	55954	6588	0.71334400912746787071	0	1	792.41571099555585533	0	NaN	NaN	0	1	1	0	1	0
5	1	3	35	33831	5925	0.71339029807131737471	0	1	702.47434900375083089	0	NaN	NaN	0	1	1	0	1	0
5	1	3	36	7559	5699	0.71348289633169770241	0	1	624.1497759910998866	0	NaN	NaN	0	1	1	0	1	0
5	1	3	37	15307	3719	0.7135291865561157465	0	1	849.1886109986808151	0	NaN	NaN	0	1	1	0	1	0
5	1	3	38	32276	5440	0.71357548318337649107	0	1	586.52954798890277743	0	NaN	NaN	0	1	1	0	1	0
5	1	3	39	62374	9470	0.71362176910042762756	0	1	661.27947600034531206	0	NaN	NaN	0	1	1	0	1	0
5	1	3	40	26437	1330	0.7136680724797770381	0	1	735.13762399670667946	0	NaN	NaN	0	1	1	0	1	0
5	1	3	41	32841	8935	0.71371436398476362228	0	1	909.07185300602577627	0	NaN	NaN	0	1	1	0	1	0
5	1	3	42	7660	80	0.7137606556061655283	0	1	624.43493799946736544	0	NaN	NaN	0	1	1	0	1	0
5	1	3	43	32940	2159	0.71380695374682545662	0	1	924.92373500135727227	0	NaN	NaN	0	1	1	0	1	0
5	1	3	44	57744	1866	0.71385324606671929359	0	1	954.46261600591242313	0	NaN	NaN	0	1	1	0	1	0
5	1	3	45	21712	5965	0.71394583745859563351	0	1	757.99073500093072653	0	NaN	NaN	0	1	1	0	1	0
5	1	3	46	7278	7512	0.71399212407413870096	0	1	816.63231800484936684	0	NaN	NaN	0	1	1	0	1	0
5	1	3	47	30703	4025	0.71403842081781476736	0	1	925.4582749999826774	0	NaN	NaN	0	1	1	0	1	0
5	1	3	48	30703	4025	0.71408471744507551193	1	1	847.43527500540949404	0	0	NaN	1	1	0	1	2	0
5	1	3	49	30374	403	0.71413100778590887785	0	1	2730.1700920070288703	0	NaN	NaN	0	1	1	0	1	0
5	1	3	50	16914	1665	0.71417730802204459906	0	1	611.16641700209584087	0	NaN	NaN	0	1	1	0	1	0
5	1	3	51	19592	9667	0.71422359533607959747	0	1	964.31493500131182373	0	NaN	NaN	0	1	1	0	1	0
5	1	3	52	25960	340	0.71426989475730806589	0	1	1726.7972779955016449	0	NaN	NaN	0	1	1	0	1	0
5	1	3	53	22525	6692	0.71431619208306074142	0	1	750.31837100686971098	0	NaN	NaN	0	1	1	0	1	0
5	1	3	54	37356	3824	0.71440877369605004787	0	1	1188.3462409896310419	0	NaN	NaN	0	1	2	0	1	0
5	1	3	55	57803	1160	0.71445507032331079245	0	1	742.44536898913793266	0	NaN	NaN	0	1	1	0	1	0
5	1	3	56	2386	7046	0.71450136508792638779	1	1	801.68621899792924523	0	121	NaN	1	1	0	1	2	0
5	1	3	57	13660	7852	0.71454766078386455774	0	1	688.39505199866835028	0	NaN	NaN	0	1	1	0	1	0
5	1	3	58	50278	5291	0.71459385426715016365	0	1	930.33335899235680699	0	NaN	NaN	0	1	1	0	1	0
5	1	3	59	64273	3595	0.71464014984667301178	0	1	1389.0707950049545616	0	NaN	NaN	0	1	1	0	1	0
5	1	3	60	70472	2325	0.71468644635751843452	0	1	860.17365299630910158	0	NaN	NaN	0	1	1	0	1	0
5	1	3	61	25424	4285	0.71473274030722677708	0	1	676.84310299227945507	0	NaN	NaN	0	1	1	0	1	0
5	1	3	62	16816	8561	0.71477903448976576328	0	1	641.92457000899594277	0	NaN	NaN	0	1	1	0	1	0
5	1	3	63	39664	3014	0.71482532937079668045	1	1	1530.1414290006505325	0	95	NaN	1	1	0	1	2	0
5	1	4	1	30374	403	0.71636489173397421837	1	1	1211.0975999967195094	0	14	NaN	1	1	0	1	2	0
5	1	4	2	44981	612	0.71641118952538818121	1	1	1736.9361300079617649	0	153	NaN	1	1	0	1	2	0
5	1	4	3	3920	4687	0.71645748463924974203	0	1	773.81647999573033303	0	NaN	NaN	0	1	1	0	1	0
5	1	4	4	71054	9425	0.71650378173217177391	1	1	3673.6134120001224801	1	170	NaN	1	1	1	1	2	0
5	1	4	5	28988	7750	0.71655007277149707079	0	1	952.80841100611723959	0	NaN	NaN	0	1	1	0	1	0
5	1	4	6	5994	3194	0.71659636474214494228	0	1	602.61888199602253735	0	NaN	NaN	0	1	1	0	1	0
5	1	4	7	72157	2628	0.71664265973959118128	0	1	1031.9795770046766847	0	NaN	NaN	0	1	1	0	1	0
5	1	4	8	51703	9722	0.71668895531911402941	0	1	1273.7425069935852662	0	NaN	NaN	0	1	1	0	1	0
5	1	4	9	16816	8561	0.71673524286597967148	1	1	833.36916800180915743	0	9	NaN	1	1	0	1	2	0
5	1	4	10	38933	2670	0.71678154030814766884	0	1	1089.5641899987822399	0	NaN	NaN	0	1	1	0	1	0
5	1	4	11	67620	5109	0.716874130186624825	0	1	902.81638401211239398	0	NaN	NaN	0	1	1	0	1	0
5	1	4	12	51366	3457	0.71692042180802673101	0	1	1036.6274120024172589	0	NaN	NaN	0	1	1	0	1	0
5	1	4	13	54913	9972	0.71696671133395284414	0	1	1953.3716979931341484	0	NaN	NaN	0	1	1	0	1	0
5	1	4	14	65415	899	0.71701301424764096737	0	1	783.69144900352694094	0	NaN	NaN	0	1	1	0	1	0
5	1	4	15	13401	5741	0.71705921192187815905	0	1	1588.4606979961972684	0	NaN	NaN	0	1	1	0	1	0
5	1	4	16	33797	3831	0.7171054967911913991	0	1	1150.1601680065505207	0	NaN	NaN	0	1	1	0	1	0
5	1	4	17	13710	3799	0.71715179714374244213	0	1	2930.7875230006175116	0	NaN	NaN	0	1	1	0	1	0
5	1	4	18	72873	2517	0.7171980889979749918	0	1	856.07776101096533239	0	NaN	NaN	0	1	1	0	1	0
5	1	4	19	12484	6504	0.71724437933880835772	0	1	646.5835459966911003	0	NaN	NaN	0	1	1	0	1	0
5	1	4	20	40049	3548	0.71733697550371289253	0	1	1762.833672997658141	0	NaN	NaN	0	1	1	0	1	0
5	1	4	21	6470	6399	0.71738326700869947672	0	1	764.96679699630476534	0	NaN	NaN	0	1	1	0	1	0
5	1	4	22	24036	3095	0.71742955711670219898	0	1	1224.7859420021995902	0	NaN	NaN	0	1	1	0	1	0
5	1	4	23	18885	9021	0.71747586317360401154	0	1	1602.9511179949622601	0	NaN	NaN	0	1	1	0	1	0
5	1	4	24	15588	9121	0.71752215316519141197	0	1	809.72824599302839488	0	NaN	NaN	0	1	1	0	1	0
5	1	4	25	13660	7852	0.71756844012998044491	1	1	1054.4927080045454204	0	30	NaN	1	1	0	1	2	0
5	1	4	26	49747	1108	0.71761474176310002804	1	1	1861.485992994857952	0	109	NaN	1	1	0	1	2	0
5	1	4	27	15720	8441	0.71766103000845760107	0	1	1082.0855130004929379	0	NaN	NaN	0	1	1	0	1	0
5	1	4	28	50690	9826	0.71770732244476675987	0	1	560.54097699234262109	0	NaN	NaN	0	1	1	0	1	0
5	1	4	29	71690	7559	0.71775362850166857243	0	1	1510.3639809967717156	0	NaN	NaN	0	1	1	0	1	0
5	1	4	30	36525	2880	0.71784621302504092455	0	1	1051.0656110127456486	0	NaN	NaN	0	1	1	0	1	0
5	1	4	31	69210	9949	0.71789250685833394527	0	1	873.01666299754288048	0	NaN	NaN	0	1	1	0	1	0
5	1	4	32	33510	7441	0.71793879813048988581	1	1	844.60284801025409251	0	196	NaN	1	1	0	1	2	0
5	1	4	33	36294	4751	0.71798509522341191769	0	1	790.91203100688289851	0	NaN	NaN	0	1	1	0	1	0
5	1	4	34	8081	5679	0.71803138882387429476	0	1	692.65059399185702205	0	NaN	NaN	0	1	1	0	1	0
5	1	4	35	33777	9865	0.71807768277358263731	1	1	902.68952699261717498	0	133	NaN	1	1	0	1	2	0
5	1	4	36	7374	1645	0.71812397567555308342	0	1	801.78786299074999988	0	NaN	NaN	0	1	1	0	1	0
5	1	4	37	44002	1266	0.71817026205826550722	1	1	781.30479699757415801	0	92	NaN	1	1	0	1	2	0
5	1	4	38	15050	1549	0.71821656601969152689	0	1	703.7646020035026595	0	NaN	NaN	0	1	1	0	1	0
5	1	4	39	29200	4229	0.71826285577844828367	1	1	892.96802699391264468	0	98	NaN	1	1	0	1	2	0
5	1	4	40	66537	9562	0.71830905613023787737	0	1	861.72440499649383128	0	NaN	NaN	0	1	1	0	1	0
5	1	4	41	38314	6187	0.7184016423998400569	0	1	776.53514800476841629	0	NaN	NaN	0	1	1	0	1	0
5	1	4	42	41305	8748	0.7184479318093508482	1	1	1619.9723019963130355	0	187	NaN	1	1	0	1	2	0
5	1	4	43	57361	8374	0.71849423449020832777	0	1	1666.1661340040154755	0	NaN	NaN	0	1	1	0	1	0
5	1	4	44	42172	559	0.71854052541311830282	0	1	1009.3397720047505572	0	NaN	NaN	0	1	1	0	1	0
5	1	4	45	5603	53	0.71858682192396372557	0	1	2150.8781800075666979	0	NaN	NaN	0	1	1	0	1	0
5	1	4	46	66902	8043	0.71863311028573662043	0	1	1189.4221050024498254	0	NaN	NaN	0	1	1	0	1	0
5	1	4	47	3964	8972	0.71867940190713852644	0	1	804.14442300389055163	0	NaN	NaN	0	1	1	0	1	0
5	1	4	48	55519	5860	0.71872570645064115524	0	0	1376.5855120000196621	0	NaN	NaN	0	0	0	1	2	0
5	1	4	49	39012	3756	0.71877199853770434856	0	1	1102.2796940087573603	0	NaN	NaN	0	1	1	0	1	0
5	1	4	50	55806	4734	0.71881829656194895506	0	1	1015.8176760014612228	0	NaN	NaN	0	1	1	0	1	0
5	1	4	51	23391	8985	0.71886458178050816059	0	1	713.51482599857263267	0	NaN	NaN	0	1	1	0	1	0
5	1	4	52	52586	5862	0.71891088003758341074	0	1	1815.6069889955688268	0	NaN	NaN	0	1	1	0	1	0
5	1	4	53	6479	1681	0.71900347026530653238	0	1	767.93875500152353197	0	NaN	NaN	0	1	1	0	1	0
5	1	4	54	17810	8054	0.7190497562987729907	1	1	843.23225200932938606	0	100	NaN	1	1	0	1	2	0
5	1	4	55	71545	1983	0.71909605350811034441	0	1	817.81691200740169734	0	NaN	NaN	0	1	1	0	1	0
5	1	4	56	35031	7973	0.71914235514122992754	0	1	624.4820749998325482	0	NaN	NaN	0	1	1	0	1	0
5	1	4	57	309	2469	0.71918864618055522442	0	1	590.86122900771442801	0	NaN	NaN	0	1	1	0	1	0
5	1	4	58	21602	265	0.7192349402466788888	0	1	657.47031600039917976	0	NaN	NaN	0	1	1	0	1	0
5	1	4	59	62303	860	0.71928123151883482933	0	0	1544.1971149994060397	0	NaN	NaN	0	0	0	1	2	0
5	1	4	60	16328	3951	0.71932752651628106833	0	1	693.17444298940245062	0	NaN	NaN	0	1	1	0	1	0
5	1	4	61	40387	3444	0.71937382221221923828	1	1	928.41884199879132211	0	167	NaN	1	1	0	1	2	0
5	1	4	62	5302	45	0.71942011744249612093	0	1	740.80096899706404656	0	NaN	NaN	0	1	1	0	1	0
5	1	5	1	15493	187	0.72167565813288092613	0	1	902.30881799652706832	0	NaN	NaN	0	1	1	0	1	0
5	1	5	2	35190	6960	0.72172198514454066753	0	1	740.05628500890452415	0	NaN	NaN	0	1	1	0	1	0
5	1	5	3	43272	9857	0.72176825290080159903	0	1	817.41647300077602267	0	NaN	NaN	0	1	1	0	1	0
5	1	5	4	40699	9133	0.7218145767692476511	0	1	808.01238800631836057	0	NaN	NaN	0	1	1	0	1	0
5	1	5	5	64663	8620	0.72186084103304892778	0	1	920.01888899540062994	0	NaN	NaN	0	1	1	0	1	0
5	1	5	6	25288	323	0.7219071616418659687	0	1	673.31406800076365471	0	NaN	NaN	0	1	1	0	1	0
5	1	5	7	52879	7974	0.72195343079511076212	0	1	1221.2401310098357499	0	NaN	NaN	0	1	1	0	1	0
5	1	5	8	40886	3060	0.72199974721297621727	0	1	924.05500999302603304	0	NaN	NaN	0	1	1	0	1	0
5	1	5	9	72218	3271	0.72204602451529353857	0	1	1541.5610810014186427	0	NaN	NaN	0	1	1	0	1	0
5	1	5	10	68725	5081	0.72209234198089689016	0	1	1042.9346070013707504	0	NaN	NaN	0	1	1	0	1	0
5	1	5	11	21164	4741	0.72218492394313216209	0	1	838.87885200965683907	0	NaN	NaN	0	1	1	0	1	0
5	1	5	12	22917	1085	0.72223119006957858801	0	1	945.69097801286261529	0	NaN	NaN	0	1	1	0	1	0
5	1	5	13	34866	6570	0.72227750951424241066	0	1	768.23032900574617088	0	NaN	NaN	0	1	1	0	1	0
5	1	5	14	55806	4734	0.72232378670014441013	1	1	977.49088799173478037	0	25	NaN	1	1	0	1	2	0
5	1	5	15	21602	265	0.72237010637763887644	1	1	1474.6166749973781407	0	18	NaN	1	1	0	1	2	0
5	1	5	16	27440	2980	0.7224163692444562912	1	1	1128.5492379975039512	0	116	119	1	1	0	1	2	0
5	1	5	17	64166	6150	0.72246269055176526308	0	1	890.19329800794366747	0	NaN	NaN	0	1	1	0	1	0
5	1	5	18	6559	66	0.72250896529294550419	0	1	877.57719500223174691	0	NaN	NaN	0	1	1	0	1	0
5	1	5	19	19290	5550	0.72255528008099645376	0	1	1089.6115960058523342	0	NaN	NaN	0	1	1	0	1	0
5	1	5	20	59077	6106	0.7226015458581969142	0	1	1164.1245619975961745	0	NaN	NaN	0	1	1	0	1	0
5	1	5	21	35031	7973	0.72264783887658268213	1	1	692.5366899959044531	0	26	NaN	1	1	0	1	2	0
5	1	5	22	35188	4401	0.72269413771573454142	0	1	1220.6377839902415872	0	NaN	NaN	0	1	1	0	1	0
5	1	5	23	26774	2727	0.72278672631364315748	0	1	1742.4804900074377656	0	NaN	NaN	0	1	1	0	1	0
5	1	5	24	51025	6036	0.72283301409333944321	0	1	882.68714699370320886	0	NaN	NaN	0	1	1	0	1	0
5	1	5	25	35135	7741	0.72287931467872112989	0	1	852.60855199885554612	0	NaN	NaN	0	1	1	0	1	0
5	1	5	26	58467	2387	0.72292560909409075975	0	1	830.1270820084027946	0	NaN	NaN	0	1	1	0	1	0
5	1	5	27	54096	7130	0.72297189617529511452	0	1	1218.4439769916934893	0	NaN	NaN	0	1	1	0	1	0
5	1	5	28	55723	6647	0.72301819419953972101	0	1	816.49392099643591791	0	NaN	NaN	0	1	1	0	1	0
5	1	5	29	33831	5925	0.7230644904775545001	1	1	1069.4140920095378533	0	118	NaN	1	1	0	1	2	0
5	1	5	30	21153	3686	0.72311077744234353304	0	1	1363.6805989954154938	0	NaN	NaN	0	1	1	0	1	0
5	1	5	31	70336	970	0.72315707011148333549	1	1	2013.0361280025681481	0	153	NaN	1	1	0	1	2	0
5	1	5	32	16724	201	0.72320337395649403334	0	1	1854.0497210051398724	0	NaN	NaN	0	1	1	0	1	0
5	1	5	33	3920	4687	0.72324965847656130791	1	0	1560.3881499991985038	0	91	NaN	1	0	1	0	1	0
5	1	5	34	58467	2387	0.72334215417504310608	1	1	730.46122299274429679	0	7	NaN	1	1	0	1	2	0
5	1	5	35	8320	6349	0.7233884510351344943	0	1	1251.2086450005881488	0	NaN	NaN	0	1	1	0	1	0
5	1	5	36	51366	3457	0.72343473939690738916	1	1	1104.8779320117319003	0	85	NaN	1	1	0	1	2	0
5	1	5	37	70470	5237	0.72348103253170847893	0	1	975.87846399983391166	0	NaN	NaN	0	1	1	0	1	0
5	1	5	38	70470	5237	0.72352733265142887831	1	1	854.98584501328878105	0	0	NaN	1	1	0	1	2	0
5	1	5	39	30022	5169	0.7235736276488751173	1	1	858.0950460018357262	0	180	222	1	1	0	1	2	0
5	1	5	40	11865	2284	0.72361992113292217255	0	1	1371.9575539871584624	0	NaN	NaN	0	1	1	0	1	0
5	1	5	41	2537	4210	0.7236662181094288826	0	1	1217.9807060019811615	0	NaN	NaN	0	1	1	0	1	0
5	1	5	42	39085	3597	0.72371251066215336323	0	1	921.89315799623727798	0	NaN	NaN	0	1	1	0	1	0
5	1	5	43	40017	2768	0.72380510112270712852	0	1	1040.5331950023537502	0	NaN	NaN	0	1	1	0	1	0
5	1	5	44	31587	5714	0.72385139111429452896	0	1	827.89906300604343414	0	NaN	NaN	0	1	1	0	1	0
5	1	5	45	13660	7852	0.72389769158326089382	1	1	721.25425998819991946	0	81	112	1	1	0	1	2	0
5	1	5	46	31130	9788	0.72394398273900151253	0	1	1065.6546079990221187	0	NaN	NaN	0	1	1	0	1	0
5	1	5	47	53572	9094	0.72399027470964938402	0	1	977.64651200850494206	0	NaN	NaN	0	1	1	0	1	0
5	1	5	48	37215	2607	0.72403656900860369205	0	1	1171.3387750060064718	0	NaN	NaN	0	1	1	0	1	0
5	1	5	49	36659	9272	0.72408286295831203461	0	1	1211.2135469942586496	0	NaN	NaN	0	1	1	0	1	0
5	1	5	50	11255	5192	0.72412915248423814774	0	1	911.62574500776827335	0	NaN	NaN	0	1	1	0	1	0
5	1	5	51	9006	7185	0.72417544783093035221	0	1	820.1311919983709231	0	NaN	NaN	0	1	1	0	1	0
5	1	5	52	9616	6581	0.72422174795065075159	0	1	1183.7575229874346405	0	NaN	NaN	0	1	1	0	1	0
5	1	5	53	22908	1492	0.72426803631242364645	0	1	1003.0430890037678182	0	NaN	NaN	0	1	1	0	1	0
5	1	5	54	36598	2196	0.72431433713063597679	0	1	828.48960500268731266	0	NaN	NaN	0	1	1	0	1	0
5	1	5	55	42227	7998	0.72440691734664142132	0	1	1354.8776600073324516	0	NaN	NaN	0	1	1	0	1	0
5	1	5	56	40576	531	0.7244532192125916481	0	1	1312.743419999605976	0	NaN	NaN	0	1	1	0	1	0
5	1	5	57	55221	6520	0.72449950932059437037	0	1	602.52313299861270934	0	NaN	NaN	0	1	1	0	1	0
5	1	5	58	15418	3898	0.72454580152407288551	0	1	1758.5967829945730045	0	NaN	NaN	0	1	1	0	1	0
5	1	5	59	59623	9743	0.72459199687000364065	0	1	949.60371499473694712	0	NaN	NaN	0	1	1	0	1	0
5	1	5	60	35876	2430	0.72463829058688133955	0	1	847.54307600087486207	0	NaN	NaN	0	1	1	0	1	0
5	1	5	61	17360	3694	0.72468458767980337143	1	1	849.87760300282388926	0	214	NaN	1	1	0	1	2	0
5	1	5	62	40049	3548	0.72473088616970926523	1	1	1345.4963620024500415	0	103	NaN	1	1	0	1	2	0
5	1	5	63	25482	1939	0.72477718500886112452	0	1	721.10477399837691337	0	NaN	NaN	0	1	1	0	1	0
5	1	6	1	26072	1129	0.7263528057374060154	0	1	1603.0632649926701561	0	NaN	NaN	0	1	1	0	1	0
5	1	6	2	5764	3996	0.72639912005979567766	0	1	789.60593600641004741	0	NaN	NaN	0	1	1	0	1	0
5	1	6	3	32650	5160	0.7264454009709879756	0	1	2144.6171999996295199	0	NaN	NaN	0	1	1	0	1	0
5	1	6	4	41322	2539	0.72649170283693820238	0	1	720.98327300045639277	0	NaN	NaN	0	1	1	0	1	0
5	1	6	5	50118	5155	0.72653798130340874195	0	1	913.71648600033950061	0	NaN	NaN	0	1	1	0	1	0
5	1	6	6	574	3647	0.72658427455462515354	0	1	751.6051900020102039	0	NaN	NaN	0	1	1	0	1	0
5	1	6	7	11170	7233	0.72663057723548263311	0	1	614.46145200170576572	0	NaN	NaN	0	1	1	0	1	0
5	1	6	8	742	5772	0.72667687165085226297	1	1	1005.8438949927221984	0	234	NaN	1	1	0	1	2	0
5	1	6	9	36129	5761	0.72672316711395978928	0	1	783.7453940010163933	0	NaN	NaN	0	1	2	0	1	0
5	1	6	10	72288	9964	0.72676945175044238567	0	1	986.47496799821965396	0	NaN	NaN	0	1	1	0	1	0
5	1	6	11	23593	3903	0.7268157455837354064	0	1	1082.8634829958900809	0	NaN	NaN	0	1	1	0	1	0
5	1	6	12	53109	9657	0.72686204523779451847	0	1	852.82746399752795696	0	NaN	NaN	0	1	1	0	1	0
5	1	6	13	65790	1808	0.72695463639684021473	0	1	821.27770199440419674	0	NaN	NaN	0	1	1	0	1	0
5	1	6	14	69287	3036	0.72700092068407684565	0	1	1116.8416459986474365	0	NaN	NaN	0	1	1	0	1	0
5	1	6	15	59956	9484	0.72704722313210368156	0	1	982.39290900528430939	0	NaN	NaN	0	1	2	0	1	0
5	1	6	16	30703	4025	0.72709342336747795343	1	0	1166.2003920064307749	0	155	156	1	0	1	0	1	0
5	1	6	17	52611	6068	0.72713971580378711224	0	1	788.85125200031325221	0	NaN	NaN	0	1	1	0	1	0
5	1	6	18	65133	5418	0.72718600661028176546	0	1	789.59206200670450926	0	NaN	NaN	0	1	1	0	1	0
5	1	6	19	27897	4005	0.72723230579867959023	0	1	812.61670199455693364	0	NaN	NaN	0	1	1	0	1	0
5	1	6	20	69258	9960	0.7272785998648032546	0	1	1169.9915060016792268	0	NaN	NaN	0	1	1	0	1	0
5	1	6	21	45556	6726	0.72732488519977778196	1	1	934.08261101285461336	0	193	NaN	1	1	0	1	2	0
5	1	6	22	24492	2504	0.72737117833457887173	0	1	902.64358501008246094	0	NaN	NaN	0	1	1	0	1	0
5	1	6	23	7610	2735	0.72746377531439065933	0	1	835.15402500052005053	0	NaN	NaN	0	1	1	0	1	0
5	1	6	24	39116	8174	0.72751007066108286381	0	1	736.86268000165000558	0	NaN	NaN	0	1	1	0	1	0
5	1	6	25	37463	7260	0.72755635797511786222	0	1	1339.0068860026076436	0	NaN	NaN	0	1	1	0	1	0
5	1	6	26	39333	5558	0.72760265890974551439	0	1	2210.7890589977614582	0	NaN	NaN	0	1	1	0	1	0
5	1	6	27	3877	7780	0.72764894540887326002	0	1	944.29001500247977674	0	NaN	NaN	0	1	1	0	1	0
5	1	6	28	70376	1014	0.72769525018520653248	0	1	981.40028701163828373	0	NaN	NaN	0	1	1	0	1	0
5	1	6	29	818	3638	0.72774153307545930147	0	1	1492.7100519998930395	0	NaN	NaN	0	1	1	0	1	0
5	1	6	30	65105	6843	0.72778783238027244806	1	1	759.66410701221320778	0	240	NaN	1	1	0	1	2	0
5	1	6	31	33644	9313	0.72783412877470254898	0	1	828.07170999876689166	0	NaN	NaN	0	1	1	0	1	0
5	1	6	32	30825	1702	0.72788042644970118999	0	1	847.67670500150416046	0	NaN	NaN	0	1	1	0	1	0
5	1	6	33	45596	616	0.72792671818751841784	0	1	702.36793099320493639	0	NaN	NaN	0	1	1	0	1	0
5	1	6	34	62954	3640	0.72797301213722676039	0	1	1137.9381260048830882	0	NaN	NaN	0	1	1	0	1	0
5	1	6	35	27633	8318	0.72806560061872005463	0	1	892.57921199896372855	0	NaN	NaN	0	1	1	0	1	0
5	1	6	36	9580	9017	0.72811188572086393833	0	1	2455.1584000000730157	0	NaN	NaN	0	1	1	0	1	0
5	1	6	37	72591	9347	0.72815818036906421185	0	1	782.4929349881131202	0	NaN	NaN	0	1	1	0	1	0
5	1	6	38	28005	5238	0.72820448223501443863	0	1	902.2386080032447353	0	NaN	NaN	0	1	1	0	1	0
5	1	6	39	23948	6246	0.72825077129527926445	0	1	637.2385009890422225	0	NaN	NaN	0	1	1	0	1	0
5	1	6	40	5994	3194	0.72829707071650773287	1	1	824.17351400363259017	0	158	NaN	1	1	0	1	2	0
5	1	6	41	53053	727	0.7283432673430070281	1	1	743.97698399843648076	0	297	NaN	1	1	0	1	2	0
5	1	6	42	38908	6311	0.72838956210762262344	0	1	902.48409099876880646	0	NaN	NaN	0	1	1	0	1	0
5	1	6	43	32841	8935	0.72843585128430277109	1	1	845.32481200585607439	0	189	NaN	1	1	0	1	2	0
5	1	6	44	9918	116	0.72852844791486859322	0	1	2257.5943490082863718	0	NaN	NaN	0	1	1	0	1	0
5	1	6	45	22365	2297	0.72857473196927458048	0	1	911.34612599853426218	0	NaN	NaN	0	1	1	0	1	0
5	1	6	46	2012	3293	0.72862103162333369255	0	1	782.22560101130511612	0	NaN	NaN	0	1	1	0	1	0
5	1	6	47	26599	351	0.72866732650436460972	0	1	1260.2721510047558695	0	NaN	NaN	0	1	1	0	1	0
5	1	6	48	17814	2336	0.72871362720616161823	0	1	1011.9863030122360215	0	NaN	NaN	0	1	1	0	1	0
5	1	6	49	21602	265	0.72875990800093859434	1	1	736.30743099784012884	0	96	115	1	1	0	1	2	0
5	1	6	50	69210	9949	0.72880621231161057949	1	1	748.93511200207285583	0	143	NaN	1	1	0	1	2	0
5	1	6	51	65133	5418	0.72885250404942780733	1	1	791.06278700055554509	0	32	NaN	1	1	0	1	2	0
5	1	6	52	42769	6017	0.7288987989304587245	0	1	2631.3825260003795847	0	NaN	NaN	0	1	1	0	1	0
5	1	6	53	66435	8280	0.72899138426873832941	0	1	1064.6934399992460385	0	NaN	NaN	0	1	1	0	1	0
5	1	6	54	6074	9965	0.7290376805467531085	0	1	937.19503300962969661	0	NaN	NaN	0	1	1	0	1	0
5	1	6	55	24132	8516	0.72908396762795746326	0	1	1082.4792509956751019	0	NaN	NaN	0	1	1	0	1	0
5	1	6	56	17810	8054	0.72913026087917387486	1	1	718.07783500116784126	0	126	227	1	1	0	1	2	0
5	1	6	57	44002	1266	0.72917655657511204481	1	1	832.46495899220462888	0	144	237	1	1	0	1	2	0
5	1	6	58	10003	8093	0.72922285750973969698	0	1	909.31285300757735968	0	NaN	NaN	0	1	1	0	1	0
5	1	6	59	14844	8498	0.72926915017887949944	0	1	763.14548098889645189	0	NaN	NaN	0	1	1	0	1	0
5	1	6	60	309	2469	0.72931543854065239429	1	1	849.74665699701290578	0	127	NaN	1	1	0	1	2	0
5	1	6	61	60306	830	0.72936173353809863329	0	1	1179.8639299959177151	0	NaN	NaN	0	1	1	0	1	0
5	1	6	62	12146	6274	0.72940803447272628546	1	1	833.7930090056033805	0	224	NaN	1	1	0	1	2	0
5	1	7	1	39116	8174	0.73093630641233175993	1	1	945.9977389924461022	0	38	NaN	1	1	0	1	2	0
5	1	7	2	69998	4615	0.73098260327242314816	0	1	757.57201599481049925	0	NaN	NaN	0	1	1	0	1	0
5	1	7	3	36295	2736	0.73102889047004282475	0	1	891.70769399788696319	0	NaN	NaN	0	1	1	0	1	0
5	1	7	4	33550	5200	0.73107519245240837336	1	0	1007.9878640099195763	0	291	NaN	1	0	1	0	1	0
5	1	7	5	21445	2330	0.73112148535437881947	0	1	1217.3653990030288696	0	NaN	NaN	0	1	1	0	1	0
5	1	7	6	43423	4470	0.7311677723191678524	0	1	1361.6521350049879402	0	NaN	NaN	0	1	1	0	1	0
5	1	7	7	11393	4068	0.73121407581493258476	1	0	1045.3322780085727572	0	304	NaN	1	0	1	0	1	0
5	1	7	8	8278	5858	0.73126037325710058212	0	1	734.89117099961731583	0	NaN	NaN	0	1	1	0	1	0
5	1	7	9	35354	1538	0.73130666406359523535	1	1	1067.8261959983501583	0	300	NaN	1	1	0	1	2	0
5	1	7	10	25474	6560	0.73139925277791917324	0	1	1287.7221059898147359	0	NaN	NaN	0	1	1	0	1	0
5	1	7	11	25753	8283	0.73144554230384528637	0	1	1219.5988780003972352	0	NaN	NaN	0	1	1	0	1	0
5	1	7	12	32650	5160	0.73149183799978345633	1	1	903.99069299746770412	0	70	NaN	1	1	0	1	2	0
5	1	7	13	2012	3293	0.73153813497629016638	1	1	646.99968800414353609	0	28	NaN	1	1	0	1	2	0
5	1	7	14	21712	5965	0.7315844288095831871	1	0	1153.9794309937860817	0	218	NaN	1	0	1	0	1	0
5	1	7	15	53252	2408	0.73163071414455771446	0	1	749.36159000208135694	0	NaN	NaN	0	1	1	0	1	0
5	1	7	16	19592	9667	0.73167701670899987221	1	1	902.44049200555309653	0	214	NaN	1	1	0	1	2	0
5	1	7	17	57744	1866	0.73172330821398645639	1	1	773.3402259909780696	0	222	NaN	1	1	0	1	2	0
5	1	7	18	39081	3342	0.73176959797274321318	0	1	862.51771800743881613	0	NaN	NaN	0	1	1	0	1	0
5	1	7	19	70376	1014	0.73181589529849588871	1	1	853.00611800630576909	0	52	NaN	1	1	0	1	2	0
5	1	7	20	31068	7951	0.73190848191734403372	0	1	965.63127900299150497	0	NaN	NaN	0	1	1	0	1	0
5	1	7	21	4673	4784	0.73195477365516126156	0	1	709.88987499731592834	0	NaN	NaN	0	1	1	0	1	0
5	1	7	22	34969	5660	0.73200107633601874113	0	1	1250.8816219924483448	0	NaN	NaN	0	1	1	0	1	0
5	1	7	23	65208	8315	0.73204736178740859032	0	1	1237.2131900046952069	0	NaN	NaN	0	1	1	0	1	0
5	1	7	24	39925	1098	0.73209366470109671354	0	1	1745.2426789968740195	0	NaN	NaN	0	1	1	0	1	0
5	1	7	25	35952	1431	0.73213995795231312513	0	1	864.97734200384002179	0	NaN	NaN	0	1	1	0	1	0
5	1	7	26	8278	5858	0.73218625085428357124	1	1	708.63972400547936559	0	17	NaN	1	1	0	1	2	0
5	1	7	27	56518	2848	0.73223244794644415379	0	1	982.51433399855159223	0	NaN	NaN	0	1	1	0	1	0
5	1	7	28	4787	36	0.73227873560972511768	0	1	1287.810834008269012	0	NaN	NaN	0	1	1	0	1	0
5	1	7	29	68808	6866	0.7323250307235866785	0	1	1726.7393999936757609	0	NaN	NaN	0	1	1	0	1	0
5	1	7	30	39925	1098	0.73237133107613772154	1	1	724.84457900281995535	0	5	NaN	1	1	0	1	2	0
5	1	7	31	65208	8315	0.7324176254915073514	1	1	665.03894499328453094	0	7	NaN	1	1	0	1	2	0
5	1	7	32	14667	5663	0.73246392013970762491	0	1	891.32746100949589163	0	NaN	NaN	0	1	1	0	1	0
5	1	7	33	43253	2218	0.73251021478790789843	0	1	907.23034300026483834	0	NaN	NaN	0	1	1	0	1	0
5	1	7	34	8278	5858	0.73260280000977218151	1	1	733.3652870001969859	0	7	25	1	1	0	1	2	0
5	1	7	35	36659	9272	0.73264910141006112099	1	1	2385.3184440085897222	0	110	NaN	1	1	0	1	2	0
5	1	7	36	66960	8216	0.73269538942258805037	0	1	735.49914399336557835	0	NaN	NaN	0	1	1	0	1	0
5	1	7	37	68811	7520	0.73274168395437300205	0	1	889.26293600525241345	0	NaN	NaN	0	1	1	0	1	0
5	1	7	38	43851	5919	0.73278797173406928778	0	1	969.57006500451825559	0	NaN	NaN	0	1	1	0	1	0
5	1	7	39	29010	2451	0.73283427499700337648	0	1	754.40202800382394344	0	NaN	NaN	0	1	1	0	1	0
5	1	7	40	41784	9575	0.73288056068122386932	0	1	1526.783604989759624	0	NaN	NaN	0	1	1	0	1	0
5	1	7	41	21445	2330	0.73292686126660555601	1	1	757.42215300851967186	0	35	NaN	1	1	0	1	2	0
5	1	7	42	36956	7310	0.73297315300442278385	0	1	903.53936998872086406	0	NaN	NaN	0	1	1	0	1	0
5	1	7	43	14256	8175	0.73301945498678833246	0	1	847.03578900371212512	0	NaN	NaN	0	1	1	0	1	0
5	1	7	44	2558	2259	0.73306574276648461819	1	1	835.34693298861384392	0	274	NaN	1	1	0	1	2	0
5	1	7	45	35188	4401	0.73311203496996313334	1	1	752.29019099788274616	0	147	NaN	1	1	0	1	2	0
5	1	7	46	13115	3902	0.73320462880656123161	1	1	1646.1601539922412485	0	396	NaN	1	1	0	1	2	0
5	1	7	47	64775	9335	0.73325091367587447166	0	1	1177.9752529982943088	0	NaN	NaN	0	1	1	0	1	0
5	1	7	48	71842	2760	0.73329721554182469845	0	1	953.78130300377961248	0	NaN	NaN	0	1	1	0	1	0
5	1	7	49	42769	6017	0.73334350984077900648	1	1	850.25737099931575358	0	58	NaN	1	1	0	1	2	0
5	1	7	50	47136	8170	0.73338970821350812912	0	1	1582.2206209995783865	0	NaN	NaN	0	1	1	0	1	0
5	1	7	51	22495	5262	0.73343600216321647167	0	1	805.30879499565344304	0	NaN	NaN	0	1	1	0	1	0
5	1	7	52	22495	5262	0.73348229646217077971	1	1	963.03750800143461674	0	0	NaN	1	1	0	1	2	0
5	1	7	53	17814	2336	0.73352859297301620245	1	1	1705.0624830008018762	0	66	NaN	1	1	0	1	2	0
5	1	7	54	10588	3862	0.73357488343026489019	0	1	1284.0022830059751868	0	NaN	NaN	0	1	1	0	1	0
5	1	7	55	70840	8482	0.73366747167892754078	0	1	1350.5990019912132993	0	NaN	NaN	0	1	1	0	1	0
5	1	7	56	4753	9525	0.73371376469731330872	0	1	1046.8437899980926886	0	NaN	NaN	0	1	1	0	1	0
5	1	7	57	18954	3450	0.73376005911268293858	0	1	705.92357299756258726	0	NaN	NaN	0	1	1	0	1	0
5	1	7	58	22525	6692	0.7338063481729477644	1	1	872.52961000194773078	0	254	NaN	1	1	0	1	2	0
5	1	7	59	19182	230	0.73385264934040606022	0	1	803.20968999876640737	0	NaN	NaN	0	1	1	0	1	0
5	1	7	60	33442	5967	0.73389893514104187489	0	1	1660.2127389924135059	0	NaN	NaN	0	1	1	0	1	0
5	1	7	61	26704	7856	0.73394523665774613619	0	1	1131.5294419910060242	0	NaN	NaN	0	1	1	0	1	0
5	1	7	62	43545	8586	0.73399152338970452547	0	1	977.56522199779283255	0	NaN	NaN	0	1	1	0	1	0
5	1	7	63	54096	7130	0.7340378263033926487	1	1	1027.9040850000455976	0	160	NaN	1	1	0	1	2	0
5	1	8	1	70235	8109	0.73551672545727342367	0	1	1375.3230909933336079	0	NaN	NaN	0	1	1	0	1	0
5	1	8	2	6559	66	0.73556302045471966267	1	1	1036.242759000742808	0	171	NaN	1	1	0	1	2	0
5	1	8	3	72081	992	0.73560931335669010878	0	1	975.40780699637252837	0	NaN	NaN	0	1	1	0	1	0
5	1	8	4	48589	2986	0.73565561778377741575	0	1	728.82431099424138665	0	NaN	NaN	0	1	1	0	1	0
5	1	8	5	62879	1192	0.73570190276950597763	0	1	964.364913001190871	0	NaN	NaN	0	1	1	0	1	0
5	1	8	6	23902	5568	0.73574821569491177797	0	1	839.81606501038186252	0	NaN	NaN	0	1	1	0	1	0
5	1	8	7	3982	2203	0.73579448158852756023	0	1	1148.166447994299233	0	NaN	NaN	0	1	1	0	1	0
5	1	8	8	9006	7185	0.73584079905413091183	1	1	866.81819200748577714	0	144	NaN	1	1	0	1	2	0
5	1	8	9	72102	4001	0.73588707414455711842	0	1	904.17183899262454361	0	NaN	NaN	0	1	1	0	1	0
5	1	8	10	25424	4285	0.73597966716624796391	1	1	1103.0882900085998699	0	261	NaN	1	1	0	1	2	0
5	1	8	11	36068	475	0.73602598963771015406	0	1	822.44846200046595186	0	NaN	NaN	0	1	1	0	1	0
5	1	8	12	43945	7336	0.73607225529849529266	1	0	881.99009900563396513	0	323	NaN	1	0	1	0	1	0
5	1	8	13	35414	1800	0.7361185871995985508	0	1	1112.6399750064592808	0	NaN	NaN	0	1	1	0	1	0
5	1	8	14	15588	9121	0.73616483830846846104	1	1	860.50547700142487884	0	239	NaN	1	1	0	1	2	0
5	1	8	15	12952	7428	0.73621118173468858004	0	1	997.61049899097997695	0	NaN	NaN	0	1	1	0	1	0
5	1	8	16	14667	5663	0.73625742876902222633	1	1	923.44335299276281148	0	46	NaN	1	1	0	1	2	0
5	1	8	17	64814	6579	0.73630377813242375851	0	1	896.91493999271187931	0	NaN	NaN	0	1	1	0	1	0
5	1	8	18	59141	7917	0.73635002062655985355	0	1	977.47870800958480686	0	NaN	NaN	0	1	1	0	1	0
5	1	8	19	39012	3756	0.73639637534506618977	1	0	1547.4264030053745955	0	219	NaN	1	0	1	0	1	0
5	1	8	20	59077	6106	0.73648897174280136824	1	1	1199.5672539924271405	0	187	NaN	1	1	0	1	2	0
5	1	8	21	26973	2186	0.73653519619256258011	0	1	1805.0273400003788993	0	NaN	NaN	0	1	1	0	1	0
5	1	8	22	69998	4615	0.73658156243618577719	1	1	771.71657700091600418	0	82	NaN	1	1	0	1	2	0
5	1	8	23	34684	4306	0.73662778432480990887	0	1	981.64608899969607592	0	NaN	NaN	0	1	1	0	1	0
5	1	8	24	67777	5523	0.73667416092939674854	0	1	994.73442501039244235	0	NaN	NaN	0	1	1	0	1	0
5	1	8	25	52879	7974	0.73672037350479513407	1	1	1122.5989079975988716	0	205	NaN	1	1	0	1	2	0
5	1	8	26	28118	1196	0.73676667152903974056	0	1	1289.9104550015181303	0	NaN	NaN	0	1	1	0	1	0
5	1	8	27	12050	9718	0.73681295907590538263	1	1	1002.0210410002619028	0	317	NaN	1	1	0	1	2	0
5	1	8	28	10325	9244	0.7368592703714966774	0	1	1412.8591699991375208	0	NaN	NaN	0	1	1	0	1	0
5	1	8	29	59812	2604	0.73690554185304790735	0	1	1315.2446789899840951	0	NaN	NaN	0	1	1	0	1	0
5	1	8	30	65040	4793	0.73695185268297791481	0	1	1281.4981089904904366	0	NaN	NaN	0	1	2	0	1	0
5	1	8	31	71754	988	0.73704443674068897963	0	1	1073.0124019901268184	0	NaN	NaN	0	1	1	0	1	0
5	1	8	32	46709	5894	0.7370906296418979764	0	1	1147.4305649899179116	0	NaN	NaN	0	1	1	0	1	0
5	1	8	33	65718	1732	0.73713691486045718193	0	1	1002.912219992140308	0	NaN	NaN	0	1	1	0	1	0
5	1	8	34	54299	6066	0.73718321521300822496	0	1	1257.3516980046406388	0	NaN	NaN	0	1	1	0	1	0
5	1	8	35	6799	7020	0.73722950939554721117	0	1	951.58875398919917643	0	NaN	NaN	0	1	1	0	1	0
5	1	8	36	50158	9798	0.73727580287959426641	0	1	844.45950099325273186	0	NaN	NaN	0	1	1	0	1	0
5	1	8	37	23103	1771	0.73732209822628647089	0	1	938.55897399771492928	0	NaN	NaN	0	1	1	0	1	0
5	1	8	38	33768	5382	0.7373683941550552845	0	1	1533.7611499999184161	0	NaN	NaN	0	1	1	0	1	0
5	1	8	39	55230	8917	0.73741468123625963926	0	1	773.6061670002527535	0	NaN	NaN	0	1	1	0	1	0
5	1	8	40	38908	6311	0.73746097972616553307	1	1	839.54565500607714057	0	122	NaN	1	1	0	1	2	0
5	1	8	41	28655	5514	0.73750727565493434668	0	1	1026.6942910093348473	0	NaN	NaN	0	1	1	0	1	0
5	1	8	42	3176	3924	0.73759986308868974447	0	1	1183.7617059936746955	0	NaN	NaN	0	1	1	0	1	0
5	1	8	43	59812	2604	0.73764615843538194895	1	1	817.64102799934335053	0	13	NaN	1	1	0	1	2	0
5	1	8	44	62879	1192	0.73769245145376771688	1	1	884.26891299604903907	0	38	NaN	1	1	0	1	2	0
5	1	8	45	4449	2755	0.73773874668404459953	0	1	968.61628099577501416	0	NaN	NaN	0	1	1	0	1	0
5	1	8	46	55266	9761	0.73778503353241831064	0	1	1103.906837000977248	0	NaN	NaN	0	1	1	0	1	0
5	1	8	47	12663	1968	0.73783133365213871002	0	1	1251.0672689968487248	0	NaN	NaN	0	1	1	0	1	0
5	1	8	48	71690	7559	0.73787762178108096123	1	1	1123.8414390099933371	0	268	NaN	1	1	0	1	2	0
5	1	8	49	54759	1551	0.73792392306495457888	0	1	1073.1644679908640683	0	NaN	NaN	0	1	1	0	1	0
5	1	8	50	16739	6666	0.73797021841164678335	1	0	2456.9906850083498284	0	336	NaN	1	0	1	0	1	0
5	1	8	51	47136	8170	0.73801650770474225283	1	0	1944.4185589964035898	0	63	NaN	1	0	1	0	1	0
5	1	8	52	39012	3756	0.73806280153803527355	1	1	1275.495245005004108	0	32	252	1	1	0	1	2	0
5	1	8	53	55801	2262	0.73810910072643309832	0	1	1026.6282450029393658	0	NaN	NaN	0	1	1	0	1	0
5	1	8	54	4673	4784	0.73815539572387933731	1	1	871.95844300731550902	0	95	NaN	1	1	0	1	2	0
5	1	8	55	31587	5714	0.73824798339046537876	1	1	2531.19675800553523	0	198	NaN	1	1	0	1	2	0
5	1	8	56	49747	1108	0.73829427757300436497	1	1	991.57989799277856946	0	279	389	1	1	0	1	2	0
5	1	8	57	57134	1224	0.73834056558553129435	0	1	953.64142299513332546	0	NaN	NaN	0	1	1	0	1	0
5	1	8	58	18705	9934	0.73838676873128861189	0	1	807.49650301004294306	0	NaN	NaN	0	1	1	0	1	0
5	1	8	59	14202	1317	0.73843306070193648338	0	1	1216.2538340053288266	0	NaN	NaN	0	1	1	0	1	0
5	1	8	60	58145	805	0.73847935744561254978	0	1	1003.5686689952854067	0	NaN	NaN	0	1	1	0	1	0
5	1	8	61	11480	5274	0.73852565023116767406	0	1	1202.9368290095590055	0	NaN	NaN	0	1	1	0	1	0
5	1	8	62	24959	5350	0.73857194534502923489	0	1	1626.5958079893607646	0	NaN	NaN	0	1	1	0	1	0
5	1	9	1	55801	2262	0.74103069759439677	1	1	914.23828600090928376	0	9	NaN	1	1	0	1	2	0
5	1	9	2	23948	6246	0.74107699678279459476	1	1	1030.5836469924543053	0	149	NaN	1	1	0	1	2	0
5	1	9	3	36659	9272	0.74112328048795461655	1	1	1030.4355289990780875	0	92	203	1	1	0	1	2	0
5	1	9	4	21164	4741	0.74116959155071526766	1	1	1809.9092799966456369	0	242	NaN	1	1	0	1	2	0
5	1	9	5	11943	145	0.74121587455738335848	0	1	1169.0276279987301677	0	NaN	NaN	0	1	1	0	1	0
5	1	9	6	68022	6367	0.74126218270976096392	0	1	1749.6706740057561547	0	NaN	NaN	0	1	1	0	1	0
5	1	9	7	40049	3548	0.74130845419131219387	1	1	736.15820999839343131	0	194	298	1	1	0	1	2	0
5	1	9	8	34562	2752	0.74135476967785507441	0	1	2161.0370459966361523	0	NaN	NaN	0	1	1	0	1	0
5	1	9	9	19182	230	0.74140104139223694801	1	1	705.78277400636579841	0	74	NaN	1	1	0	1	2	0
5	1	9	10	71513	9922	0.74144734034780412912	0	1	961.05035199434496462	0	NaN	NaN	0	1	1	0	1	0
5	1	9	11	33325	5889	0.74149362859316170216	0	1	1003.3147670037578791	0	NaN	NaN	0	1	1	0	1	0
5	1	9	12	11734	2377	0.74153992254287004471	0	1	1076.23425500059966	0	NaN	NaN	0	1	1	0	1	0
5	1	9	13	22908	1492	0.74158622580580413342	1	1	1593.0212609964655712	0	209	NaN	1	1	0	1	2	0
5	1	9	14	5994	3194	0.74167881370522081852	1	1	707.64333500119391829	0	160	319	1	1	0	1	2	0
5	1	9	15	35001	1899	0.74172509950585663319	0	1	1302.7287729928502813	0	NaN	NaN	0	1	1	0	1	0
5	1	9	16	68787	9049	0.74177139822859317064	0	1	739.52263100363779813	0	NaN	NaN	0	1	1	0	1	0
5	1	9	17	68725	5081	0.74181769008282572031	1	1	1072.2309340053470805	0	256	NaN	1	1	0	1	2	0
5	1	9	18	39116	8174	0.74186399078462272882	1	1	636.4422360056778416	0	141	180	1	1	0	1	2	0
5	1	9	19	4809	1624	0.74191027937922626734	0	1	975.80299699620809406	0	NaN	NaN	0	1	1	0	1	0
5	1	9	20	38818	511	0.74195657961536198854	0	1	1271.7616169975372031	0	NaN	NaN	0	1	1	0	1	0
5	1	9	21	25469	4420	0.74200286425184458494	0	1	714.85113199742045254	0	NaN	NaN	0	1	1	0	1	0
5	1	9	22	32305	5745	0.74204916751477867365	0	1	670.43462100264150649	0	NaN	NaN	0	1	1	0	1	0
5	1	9	23	68420	3492	0.74209546053316444159	0	1	1303.0605069943703711	0	NaN	NaN	0	1	1	0	1	0
5	1	9	24	66490	919	0.74214175622910261154	0	1	1552.3741580109344795	0	NaN	NaN	0	1	1	0	1	0
5	1	9	25	58775	5733	0.74223424866795539856	0	1	1310.466130991699174	0	NaN	NaN	0	1	1	0	1	0
5	1	9	26	69588	8542	0.74228054191917181015	0	1	1227.9585030046291649	0	NaN	NaN	0	1	1	0	1	0
5	1	9	27	10594	2220	0.74232683423906564713	0	1	928.68454799463506788	0	NaN	NaN	0	1	1	0	1	0
5	1	9	28	71233	984	0.74237313016783446074	0	1	1550.283657998079434	0	NaN	NaN	0	1	1	0	1	0
5	1	9	29	13442	7057	0.74241941689979285002	0	1	1246.4183289994252846	0	NaN	NaN	0	1	1	0	1	0
5	1	9	30	67101	5896	0.74246571667026728392	0	1	1124.4989719998557121	0	NaN	NaN	0	1	1	0	1	0
5	1	9	31	49887	7390	0.74251201190054416656	0	1	938.94052501127589494	0	NaN	NaN	0	1	1	0	1	0
5	1	9	32	52867	5139	0.74255829968024045229	0	1	1273.7735690025147051	0	NaN	NaN	0	1	1	0	1	0
5	1	9	33	18445	2320	0.74260460108052939177	0	1	1119.6784679923439398	0	NaN	NaN	0	1	1	0	1	0
5	1	9	34	67138	6169	0.74265089177060872316	0	1	1363.5743119957624003	0	NaN	NaN	0	1	1	0	1	0
5	1	9	35	50992	4523	0.74269718513824045658	1	1	2534.1932030132738873	0	522	NaN	1	1	0	1	2	0
5	1	9	36	58748	7240	0.74278977420181035995	0	1	914.9766810005530715	0	NaN	NaN	0	1	1	0	1	0
5	1	9	37	26396	6069	0.74283606326207518578	0	1	708.22567299182992429	0	NaN	NaN	0	1	1	0	1	0
5	1	9	38	33942	6817	0.7428823692025616765	0	1	1040.096512995660305	0	NaN	NaN	0	1	1	0	1	0
5	1	9	39	18445	2320	0.74292865942697972059	1	1	1066.7926390015054494	0	5	NaN	1	1	0	1	2	0
5	1	9	40	16328	3951	0.74297495675273239613	1	0	937.37661599880084395	0	291	NaN	1	0	1	0	1	0
5	1	9	41	69310	7568	0.74302124651148915291	0	1	1536.7967839993070811	0	NaN	NaN	0	1	1	0	1	0
5	1	9	42	70594	7447	0.74306753347627818584	0	1	1506.5526370017323643	0	NaN	NaN	0	1	1	0	1	0
5	1	9	43	21366	6540	0.74311383534222841263	0	1	1419.4109730015043169	0	NaN	NaN	0	1	1	0	1	0
5	1	9	44	6818	2255	0.74316012964118272066	0	1	1205.7242139999289066	0	NaN	NaN	0	1	1	0	1	0
5	1	9	45	57709	9088	0.74325271823909133673	0	1	1530.2368619886692613	0	NaN	NaN	0	1	1	0	1	0
5	1	9	46	68047	9124	0.74329900683369487524	0	1	1912.9752269946038723	0	NaN	NaN	0	1	1	0	1	0
5	1	9	47	2012	3293	0.74334530835039913654	1	1	917.49774898926261812	0	158	187	1	1	0	1	2	0
5	1	9	48	46673	2821	0.74339160264935344458	0	1	978.85272301209624857	0	NaN	NaN	0	1	1	0	1	0
5	1	9	49	35649	4095	0.74343783385120332241	0	1	1081.7067470052279532	0	NaN	NaN	0	1	1	0	1	0
5	1	9	50	36294	4751	0.74348412663675844669	1	1	1200.4773889930220321	0	328	NaN	1	1	0	1	2	0
5	1	9	51	4449	2755	0.74353042012080550194	1	1	1706.4085520105436444	0	67	NaN	1	1	0	1	2	0
5	1	9	52	4419	7655	0.74357672291807830334	0	1	1022.6613849954446778	0	NaN	NaN	0	1	1	0	1	0
5	1	9	53	57363	3807	0.74362302047666162252	0	1	1260.6397630006540567	0	NaN	NaN	0	1	1	0	1	0
5	1	9	54	51366	3457	0.74366931768599897623	1	1	871.27358600264415145	0	267	353	1	1	0	1	2	0
5	1	9	55	70235	8109	0.7437619037227705121	1	1	958.81469199957791716	0	115	NaN	1	1	0	1	2	0
5	1	9	56	63436	6054	0.74380820919759571552	0	1	1007.9053470108192414	0	NaN	NaN	0	1	1	0	1	0
5	1	9	57	1552	9508	0.74385450826957821846	0	1	1312.6125440030591562	0	NaN	NaN	0	1	1	0	1	0
5	1	9	58	64356	3768	0.74390079791191965342	0	1	1540.537422988563776	0	NaN	NaN	0	1	1	0	1	0
5	1	9	59	30993	6410	0.74394709453918039799	0	1	809.24571599462069571	0	NaN	NaN	0	1	1	0	1	0
5	1	9	60	24189	2328	0.74399340176023542881	0	1	1143.1577110051875934	0	NaN	NaN	0	1	1	0	1	0
5	1	9	61	57363	3807	0.74403969047125428915	1	1	905.20374498737510294	0	7	NaN	1	1	0	1	2	0
5	1	9	62	60850	7697	0.74408598861191421747	0	1	1274.2071820102864876	0	NaN	NaN	0	1	1	0	1	0
5	1	9	63	8195	8816	0.74413228651974350214	0	1	1204.571880996809341	0	NaN	NaN	0	1	1	0	1	0
5	1	10	1	40387	3444	0.7456366795813664794	1	1	788.53312200226355344	0	314	482	1	1	0	1	2	0
5	1	10	2	1579	7744	0.74568297772202640772	0	1	1140.8752819988876581	0	NaN	NaN	0	1	1	0	1	0
5	1	10	3	59077	6106	0.74572926899418234825	1	1	1055.7694220042321831	0	107	295	1	1	0	1	2	0
5	1	10	4	39413	1126	0.74577555933501571417	0	1	802.17963800532743335	0	NaN	NaN	0	1	1	0	1	0
5	1	10	5	52362	7339	0.74582185328472405672	0	1	1030.1801299938233569	0	NaN	NaN	0	1	1	0	1	0
5	1	10	6	25576	2913	0.74586815875954926014	0	1	1172.1861379919573665	0	NaN	NaN	0	1	1	0	1	0
5	1	10	7	72319	7572	0.74591444258112460375	0	1	1170.4377599962754175	0	NaN	NaN	0	1	1	0	1	0
5	1	10	8	24132	8516	0.74596063094213604927	1	1	763.13653400575276464	0	202	NaN	1	1	0	1	2	0
5	1	10	9	60020	6139	0.74600692908279597759	0	1	1129.9405590107198805	0	NaN	NaN	0	1	1	0	1	0
5	1	10	10	20188	9261	0.74609951500315219164	0	1	1565.0189599982695654	0	NaN	NaN	0	1	1	0	1	0
5	1	10	11	65208	8315	0.74614581139758229256	1	1	782.32298701186664402	0	167	175	1	1	0	1	2	0
5	1	10	12	3627	14	0.74619210348464548588	0	1	1003.2910709996940568	0	NaN	NaN	0	1	1	0	1	0
5	1	10	13	34969	5660	0.74623840081039816141	1	1	1123.0331349943298846	0	178	NaN	1	1	0	1	2	0
5	1	10	14	22525	6692	0.74628468602895736694	1	1	744.67042600736021996	0	143	398	1	1	0	1	2	0
5	1	10	15	7847	4211	0.74633098929189145565	0	1	1052.8680740098934621	0	NaN	NaN	0	1	1	0	1	0
5	1	10	16	50310	9571	0.74637728300876915455	0	1	890.84394898964092135	0	NaN	NaN	0	1	1	0	1	0
5	1	10	17	24064	9570	0.74642357183620333672	0	1	1155.8749520045239478	0	NaN	NaN	0	1	1	0	1	0
5	1	10	18	4173	4400	0.74646986403968185186	0	1	1076.3871509989257902	0	NaN	NaN	0	1	1	0	1	0
5	1	10	19	68753	8200	0.74651616450864821672	0	1	1324.559558997862041	0	NaN	NaN	0	1	1	0	1	0
5	1	10	20	9350	5345	0.74656245834194123745	0	1	751.0704400046961382	0	NaN	NaN	0	1	1	0	1	0
5	1	10	21	26357	4585	0.74665504030417650938	0	1	832.56563299801200628	0	NaN	NaN	0	1	1	0	1	0
5	1	10	22	68725	5081	0.74670134205371141434	1	1	828.40053099789656699	0	67	324	1	1	0	1	2	0
5	1	10	23	53399	7247	0.7467476273886859417	0	1	935.79376900743227452	0	NaN	NaN	0	1	1	0	1	0
5	1	10	24	19682	5960	0.74679392494726926088	0	1	1264.3581299926154315	0	NaN	NaN	0	1	1	0	1	0
5	1	10	25	65105	6843	0.74684021575376391411	1	1	673.3219290035776794	0	244	485	1	1	0	1	2	0
5	1	10	26	52974	2726	0.74688651855103671551	0	1	1243.9288720051990822	0	NaN	NaN	0	1	1	0	1	0
5	1	10	27	25424	4285	0.7469328057486563921	1	1	722.13736300182063133	0	141	403	1	1	0	1	2	0
5	1	10	28	56186	7449	0.74697910109534859657	0	1	906.03748599824029952	0	NaN	NaN	0	1	1	0	1	0
5	1	10	29	12283	3909	0.74702539260033518076	0	1	1245.68970401014667	0	NaN	NaN	0	1	1	0	1	0
5	1	10	30	11197	6194	0.74711799027863889933	0	1	1002.1568490046774969	0	NaN	NaN	0	1	1	0	1	0
5	1	10	31	19994	3376	0.74716418702155351639	1	0	1111.994195991428569	0	484	NaN	1	0	1	0	1	0
5	1	10	32	29390	3500	0.74721048038918524981	0	1	912.95430199534166604	0	NaN	NaN	0	1	1	0	1	0
5	1	10	33	58299	6752	0.74725677305832505226	0	1	1044.3209209915949032	0	NaN	NaN	0	1	1	0	1	0
5	1	10	34	16070	4739	0.74730306596029549837	0	1	1302.9869229940231889	0	NaN	NaN	0	1	1	0	1	0
5	1	10	35	42481	3456	0.74734935490414500237	0	1	2124.1869910008972511	0	NaN	NaN	0	1	1	0	1	0
5	1	10	36	19182	230	0.7473956570029258728	1	1	767.9519619996426627	0	89	164	1	1	0	1	2	0
5	1	10	37	45596	616	0.74744194431696087122	1	1	807.40374299057293683	0	253	NaN	1	1	0	1	2	0
5	1	10	38	14529	173	0.74748824234120547771	0	1	916.73917400476057082	0	NaN	NaN	0	1	1	0	1	0
5	1	10	39	5053	2163	0.74753454001620411873	0	1	1002.7109869988635182	0	NaN	NaN	0	1	1	0	1	0
5	1	10	40	61799	9008	0.74762712081428617239	0	1	1458.3884929888881743	0	NaN	NaN	0	1	1	0	1	0
5	1	10	41	7044	4465	0.74767342139966785908	0	1	811.00163400697056204	0	NaN	NaN	0	1	1	0	1	0
5	1	10	42	25257	7198	0.74771971325390040874	0	1	1387.4192670045886189	0	NaN	NaN	0	1	1	0	1	0
5	1	10	43	5884	5817	0.74776601092889904976	0	1	1077.4033729976508766	0	NaN	NaN	0	1	1	0	1	0
5	1	10	44	34923	6148	0.74781230522785335779	0	1	883.88304400723427534	0	NaN	NaN	0	1	1	0	1	0
5	1	10	45	51985	4356	0.74785859906114637852	0	0	1422.3584150022361428	0	NaN	NaN	0	0	0	1	2	0
5	1	10	46	32942	4186	0.74790489650331437588	1	1	1903.7618170114001259	0	494	NaN	1	1	0	1	2	0
5	1	10	47	1701	1703	0.74795118160545825958	1	1	1519.5369549910537899	0	570	NaN	1	1	0	1	2	0
5	1	10	48	12550	9294	0.74799747427459806204	0	1	1109.772548996261321	0	NaN	NaN	0	1	1	0	1	0
5	1	10	49	38908	6311	0.74804377055261284113	1	1	779.30147098959423602	0	133	256	1	1	0	1	2	0
5	1	10	50	23477	9492	0.74809006939176470041	0	1	869.5257639919873327	0	NaN	NaN	0	1	1	0	1	0
5	1	10	51	72038	8688	0.74813635926693677902	0	1	885.67619099922012538	0	NaN	NaN	0	1	1	0	1	0
5	1	10	52	46949	3319	0.74822895287070423365	0	1	883.44974799838382751	0	NaN	NaN	0	1	2	0	1	0
5	1	10	53	19799	1769	0.74827524495776742697	0	1	1203.2607169967377558	0	NaN	NaN	0	1	1	0	1	0
5	1	10	54	39727	8140	0.74832153983879834414	0	1	1012.8858190000755712	0	NaN	NaN	0	1	1	0	1	0
5	1	10	55	32944	7561	0.74836783891078084707	0	1	1026.7776209948351607	0	NaN	NaN	0	1	1	0	1	0
5	1	10	56	17185	2304	0.74841412517707794905	0	1	1214.5156230108113959	0	NaN	NaN	0	1	1	0	1	0
5	1	10	57	24995	2481	0.74846041901037096977	0	1	981.64754900790285319	0	NaN	NaN	0	1	1	0	1	0
5	1	10	58	36525	2880	0.74850662378594279289	1	1	1055.9009380085626617	0	402	NaN	1	1	0	1	2	0
5	1	10	59	26973	2186	0.74855290725827217102	1	1	802.69290199794340879	0	162	NaN	1	1	0	1	2	0
5	1	10	60	70850	2935	0.74859920924063771963	0	1	2329.7038690070621669	0	NaN	NaN	0	1	1	0	1	0
5	1	10	61	16850	5193	0.74864550365600734949	0	1	990.97697799152228981	0	NaN	NaN	0	1	1	0	1	0
5	1	10	62	9918	116	0.74869179714005440474	1	1	963.29894199152477086	0	267	NaN	1	1	0	1	2	0
5	1	11	1	30362	9647	0.75030311441514641047	0	1	1410.9063990035792813	0	NaN	NaN	0	1	1	0	1	0
5	1	11	2	68026	1791	0.75034940638579428196	0	1	1430.1840560074197128	0	NaN	NaN	0	1	1	0	1	0
5	1	11	3	63463	1407	0.7503957011504098773	0	1	1287.3416250076843426	0	NaN	NaN	0	1	1	0	1	0
5	1	11	4	56043	770	0.75044199510011821985	0	1	1252.1224770025582984	0	NaN	NaN	0	1	1	0	1	0
5	1	11	5	49438	2830	0.7504882885841652751	0	1	801.95027499576099217	0	NaN	NaN	0	1	1	0	1	0
5	1	11	6	46038	2129	0.7505345857935026288	0	1	909.20759200525935739	0	NaN	NaN	0	1	1	0	1	0
5	1	11	7	19213	2579	0.75058087659999728203	0	1	1392.146925994893536	0	NaN	NaN	0	1	1	0	1	0
5	1	11	8	39664	3014	0.75062717043329030275	1	1	992.82158400455955416	0	444	540	1	1	0	1	2	0
5	1	11	9	34239	459	0.75067346624564379454	0	0	2143.7867259955964983	0	NaN	NaN	0	0	0	1	2	0
5	1	11	10	7820	2642	0.75071976077742874622	0	1	1302.6359020004747435	0	NaN	NaN	0	1	1	0	1	0
5	1	11	11	72184	8996	0.75076604937203228474	0	1	1012.8985339979408309	0	NaN	NaN	0	1	1	0	1	0
5	1	11	12	32305	5745	0.75081235123798251152	1	1	804.56226199748925865	0	114	NaN	1	1	0	1	2	0
5	1	11	13	30278	3410	0.75090493191964924335	0	1	957.73787700454704463	0	NaN	NaN	0	1	1	0	1	0
5	1	11	14	34280	8116	0.75095122749917209148	0	1	1367.9871860076673329	0	NaN	NaN	0	1	1	0	1	0
5	1	11	15	58775	5733	0.75099742959719151258	1	1	842.26630500052124262	0	114	NaN	1	1	0	1	2	0
5	1	11	16	16328	3951	0.75104371830821037292	1	1	825.4662270046537742	0	100	392	1	1	0	1	2	0
5	1	11	17	56605	1482	0.75109000992961227894	0	0	2268.823003993020393	0	NaN	NaN	0	0	0	1	2	0
5	1	11	18	29294	4599	0.75113631086423993111	0	1	1583.6407360038720071	0	NaN	NaN	0	1	1	0	1	0
5	1	11	19	33022	4040	0.75118260784074664116	0	1	1071.3303689990425482	0	NaN	NaN	0	1	1	0	1	0
5	1	11	20	25416	4982	0.75122889794874936342	0	1	1264.8868550022598356	0	NaN	NaN	0	1	1	0	1	0
5	1	11	21	72878	8474	0.75127518945373594761	0	1	1285.9812149981735274	0	NaN	NaN	0	1	1	0	1	0
5	1	11	22	53109	9657	0.75132148549892008305	1	1	984.23234099755063653	0	321	NaN	1	1	0	1	2	0
5	1	11	23	21646	6168	0.75141406850889325142	0	1	1576.1090699961641803	0	NaN	NaN	0	1	1	0	1	0
5	1	11	24	42898	6537	0.75146037514787167311	0	1	962.81635499326512218	0	NaN	NaN	0	1	1	0	1	0
5	1	11	25	27204	4759	0.75150666153058409691	0	1	1889.6562540030572563	0	NaN	NaN	0	1	1	0	1	0
5	1	11	26	28655	5514	0.75155295967124402523	1	1	988.63444400194566697	0	171	NaN	1	1	0	1	2	0
5	1	11	27	1591	4620	0.75159925280604511499	0	1	1891.3726260070689023	0	NaN	NaN	0	1	1	0	1	0
5	1	11	28	59169	7333	0.7516455452423542738	0	1	1103.1765799998538569	0	NaN	NaN	0	1	1	0	1	0
5	1	11	29	3416	1069	0.75169183860998600721	0	1	1344.296745999599807	0	NaN	NaN	0	1	1	0	1	0
5	1	11	30	10100	1218	0.75173813547007739544	0	1	1528.3741690072929487	0	NaN	NaN	0	1	1	0	1	0
5	1	11	31	19167	1512	0.75178442918695509434	0	1	1482.2898499987786636	0	NaN	NaN	0	1	1	0	1	0
5	1	11	32	29294	4599	0.75183072348590940237	1	1	805.68165300064720213	0	13	NaN	1	1	0	1	2	0
5	1	11	33	63567	1040	0.75187701859977096319	0	1	1485.3046229982282966	0	NaN	NaN	0	1	1	0	1	0
5	1	11	34	4809	1624	0.75192331499420106411	1	1	954.14186999551020563	0	139	NaN	1	1	0	1	2	0
5	1	11	35	65790	1808	0.75201590079814195633	1	1	1068.4786540077766404	0	333	NaN	1	1	0	1	2	0
5	1	11	36	12245	4690	0.75206219463143497705	0	1	1217.3934870079392567	0	NaN	NaN	0	1	1	0	1	0
5	1	11	37	25356	5019	0.75210848404094576836	0	1	1489.8972200026037171	0	NaN	NaN	0	1	2	0	1	0
5	1	11	38	763	5219	0.75215477484744042158	0	1	1310.9274269954767078	0	NaN	NaN	0	1	1	0	1	0
5	1	11	39	9578	9102	0.75220107578206807375	0	1	1003.9311779983108863	0	NaN	NaN	0	1	1	0	1	0
5	1	11	40	16375	9621	0.7522472746204584837	1	1	1133.3029630040982738	0	547	NaN	1	1	0	1	2	0
5	1	11	41	8182	5874	0.7522935670567676425	0	1	1212.8692410042276606	0	NaN	NaN	0	1	1	0	1	0
5	1	11	42	14122	169	0.75233986636158078909	0	1	1201.4039400091860443	0	NaN	NaN	0	1	1	0	1	0
5	1	11	43	57709	9088	0.75238615658599883318	1	1	902.90332600125111639	0	122	NaN	1	1	0	1	2	0
5	1	11	44	68993	4637	0.75247874227352440357	0	1	1536.5003320039249957	0	NaN	NaN	0	1	1	0	1	0
5	1	11	45	55019	4522	0.75252504029776901007	0	1	989.25407799833919853	0	NaN	NaN	0	1	1	0	1	0
5	1	11	46	69350	7224	0.75257133273407816887	0	1	928.4847009985242039	0	NaN	NaN	0	1	1	0	1	0
5	1	11	47	37639	3822	0.75261762808077037334	0	1	1305.0432500021997839	0	NaN	NaN	0	1	1	0	1	0
5	1	11	48	7594	6407	0.75266392296180129051	0	1	1803.5491470072884113	0	NaN	NaN	0	1	1	0	1	0
5	1	11	49	28188	8393	0.75271022075321525335	0	1	1613.4007490036310628	0	NaN	NaN	0	1	1	0	1	0
5	1	11	50	34280	8116	0.75275650888215750456	1	1	852.53661700699012727	0	35	NaN	1	1	0	1	2	0
5	1	11	51	25675	2044	0.75280280399601906538	0	1	847.36877000250387937	0	NaN	NaN	0	1	1	0	1	0
5	1	11	52	10588	3862	0.75284909154288470745	1	1	2888.2550989947048947	1	247	NaN	1	1	1	1	2	0
5	1	11	53	12138	8019	0.75289538782089948654	0	1	1034.0241359954234213	0	NaN	NaN	0	1	1	0	1	0
5	1	11	54	63463	1407	0.75298797735013067722	1	1	1002.0496100041782483	0	50	NaN	1	1	0	1	2	0
5	1	11	55	64906	7367	0.75303426862228661776	1	0	1403.5895590059226379	0	589	NaN	1	0	1	0	1	0
5	1	11	56	51430	8706	0.75308056245557963848	0	1	879.07217000611126423	0	NaN	NaN	0	1	1	0	1	0
5	1	11	57	12939	2753	0.75312685931567102671	0	1	2472.954989003483206	0	NaN	NaN	0	1	1	0	1	0
5	1	11	58	52963	3802	0.75317315373104065657	0	1	820.1805300050182268	0	NaN	NaN	0	1	1	0	1	0
5	1	11	59	53109	9657	0.75321945396717637777	1	1	602.46559498773422092	0	36	358	1	1	0	1	2	0
5	1	11	60	31587	5714	0.75326574593782424927	1	1	1002.2510080016218126	0	191	390	1	1	0	1	2	0
5	1	11	61	26352	347	0.75331204105168581009	0	1	1278.4789230063324794	0	NaN	NaN	0	1	1	0	1	0
5	1	11	62	55019	4522	0.75335832859855145216	1	1	828.50319000135641545	0	16	NaN	1	1	0	1	2	0
5	1	11	63	32555	5102	0.75340462825261056423	0	1	889.89000199944712222	0	NaN	NaN	0	1	2	0	1	0
5	1	12	1	65246	1122	0.75494775793049484491	0	1	1301.7298589984420687	0	NaN	NaN	0	1	1	0	1	0
5	1	12	2	4787	36	0.7549940524622797966	1	1	1712.2259570023743436	0	286	NaN	1	1	0	1	2	0
5	1	12	3	56534	5273	0.75504034396726638079	0	1	711.08394299517385662	0	NaN	NaN	0	1	1	0	1	0
5	1	12	4	64775	9335	0.75508663360960781574	1	1	721.51618798670824617	0	269	NaN	1	1	0	1	2	0
5	1	12	5	30278	3410	0.75513292883988469839	1	1	840.50896600820124149	0	54	NaN	1	1	0	1	2	0
5	1	12	6	48667	5670	0.75517922674771398306	0	1	1505.212579999351874	0	NaN	NaN	0	1	1	0	1	0
5	1	12	7	67003	5449	0.75522552034817636013	0	1	1822.0611189899500459	0	NaN	NaN	0	1	1	0	1	0
5	1	12	8	34530	4580	0.75527181860525161028	0	1	720.90236599615309387	0	NaN	NaN	0	1	1	0	1	0
5	1	12	9	59224	1994	0.75531810952816158533	0	0	1209.4551370100816712	0	NaN	NaN	0	0	0	1	2	0
5	1	12	10	66877	1386	0.75536440522409975529	0	1	884.0323209878988564	0	NaN	NaN	0	1	1	0	1	0
5	1	12	11	41844	9828	0.75541070371400564909	0	1	1402.0833990070968866	0	NaN	NaN	0	1	1	0	1	0
5	1	12	12	59956	9484	0.75545699044596403837	1	1	763.41777399647980928	0	371	NaN	1	1	0	1	2	0
5	1	12	13	13788	1490	0.75550328823737800121	0	1	811.72012999013531953	0	NaN	NaN	0	1	1	0	1	0
5	1	12	14	11160	131	0.75559587706811726093	0	1	2260.7536709983833134	0	NaN	NaN	0	1	1	0	1	0
5	1	12	15	44432	5518	0.75564217008650302887	0	1	1707.1414600068237633	0	NaN	NaN	0	1	1	0	1	0
5	1	12	16	26945	1103	0.75568846589885652065	0	0	1986.8607950047589839	0	NaN	NaN	0	0	0	1	2	0
5	1	12	17	70191	5354	0.75573475880082696676	0	1	1981.8784300005063415	0	NaN	NaN	0	1	1	0	1	0
5	1	12	18	4320	8405	0.75578105018939822912	0	1	1104.1299999924376607	0	NaN	NaN	0	1	1	0	1	0
5	1	12	19	63946	4272	0.75582734739873558283	0	1	1107.8033130033873022	0	NaN	NaN	0	1	1	0	1	0
5	1	12	20	2779	9513	0.75587363727390766144	0	1	1584.1006379923783243	0	NaN	NaN	0	1	2	0	1	0
5	1	12	21	37924	7408	0.75591993529815226793	0	1	712.36977601074613631	0	NaN	NaN	0	1	1	0	1	0
5	1	12	22	25576	2913	0.7559662241255864501	1	1	1020.1879650121554732	0	140	NaN	1	1	0	1	2	0
5	1	12	23	35221	1834	0.7560124201700091362	0	1	844.78378698986489326	0	NaN	NaN	0	1	1	0	1	0
5	1	12	24	15191	7141	0.75610501621849834919	0	1	1522.3602409969316795	0	NaN	NaN	0	1	1	0	1	0
5	1	12	25	20444	1784	0.75615131505765020847	0	1	1627.6606830069795251	0	NaN	NaN	0	1	1	0	1	0
5	1	12	26	27244	3880	0.75619760469999164343	0	1	1188.4917999996105209	0	NaN	NaN	0	1	1	0	1	0
5	1	12	27	63463	1407	0.7562438970198854804	1	1	623.13869899662677199	0	35	86	1	1	0	1	2	0
5	1	12	28	2175	5778	0.75629018980544060469	0	1	1466.3980829936917871	0	NaN	NaN	0	1	1	0	1	0
5	1	12	29	71845	5306	0.7563364861998707056	0	1	1292.3318090033717453	0	NaN	NaN	0	1	1	0	1	0
5	1	12	30	54024	6677	0.75638278014957904816	0	1	2242.4444149946793914	0	NaN	NaN	0	1	1	0	1	0
5	1	12	31	56435	6378	0.75642907340079545975	0	1	1003.3993789984378964	0	NaN	NaN	0	1	1	0	1	0
5	1	12	32	29010	2451	0.75647537095937877893	1	1	702.50210199446883053	0	305	NaN	1	1	0	1	2	0
5	1	12	33	37639	3822	0.7565216671209782362	1	1	837.38042000913992524	0	48	NaN	1	1	0	1	2	0
5	1	12	34	25426	5870	0.75661425071302801371	0	1	2649.5830470084911212	0	NaN	NaN	0	1	1	0	1	0
5	1	12	35	70054	2567	0.75666054605972021818	0	1	716.25795999716501683	0	NaN	NaN	0	1	1	0	1	0
5	1	12	36	44457	1446	0.75670684315264225006	0	1	705.45512699754908681	0	NaN	NaN	0	1	1	0	1	0
5	1	12	37	14529	173	0.75675312825478613377	1	1	703.16388399805873632	0	123	NaN	1	1	0	1	2	0
5	1	12	38	14885	5360	0.75679942814167588949	0	1	1155.8541769918520004	0	NaN	NaN	0	1	1	0	1	0
5	1	12	39	21646	6168	0.75684572244063019753	1	1	826.20631599274929613	0	78	NaN	1	1	0	1	2	0
5	1	12	40	29294	4599	0.75689201627392321825	1	1	759.41715900262352079	0	70	84	1	1	0	1	2	0
5	1	12	41	18672	4614	0.75693831080570816994	0	1	1128.3710909920046106	0	NaN	NaN	0	1	1	0	1	0
5	1	12	42	18711	8417	0.75698460487183183432	0	1	1342.4337580072460696	0	NaN	NaN	0	1	1	0	1	0
5	1	12	43	14400	2034	0.75707719381898641586	0	1	2312.8619740018621087	0	NaN	NaN	0	1	1	0	1	0
5	1	12	44	29838	398	0.75712348276283591986	0	1	1538.6665900005027652	0	NaN	NaN	0	1	1	0	1	0
5	1	12	45	7647	8629	0.75716977403499186039	0	1	1191.6990889876615256	0	NaN	NaN	0	1	1	0	1	0
5	1	12	46	26266	1411	0.75721607881132513285	0	1	815.9675930073717609	0	NaN	NaN	0	1	1	0	1	0
5	1	12	47	863	2152	0.75726227462291717529	0	1	1066.4963799936231226	0	NaN	NaN	0	1	1	0	1	0
5	1	12	48	64835	6858	0.75730856868904083967	0	1	1366.4141009940067306	0	NaN	NaN	0	1	1	0	1	0
5	1	12	49	973	9391	0.75735486403573304415	0	1	1390.0406070024473593	0	NaN	NaN	0	1	1	0	1	0
5	1	12	50	70191	5354	0.75740115449298173189	1	1	723.20451900304760784	0	32	NaN	1	1	0	1	2	0
5	1	12	51	58145	805	0.75744744972325861454	1	1	787.12036900105886161	0	240	NaN	1	1	0	1	2	0
5	1	12	52	35028	4665	0.75754002865869551897	0	1	1451.1115170025732368	0	NaN	NaN	0	1	1	0	1	0
5	1	12	53	32944	7561	0.75758632528595626354	1	1	949.58920599310658872	0	122	NaN	1	1	0	1	2	0
5	1	12	54	55098	8160	0.75763262738473713398	0	1	803.78922699310351163	0	NaN	NaN	0	1	1	0	1	0
5	1	12	55	44896	2161	0.75767891958821564913	0	1	1087.2457869991194457	0	NaN	NaN	0	1	1	0	1	0
5	1	12	56	34341	7903	0.75772521353792399168	0	1	1550.4224370088195428	0	NaN	NaN	0	1	1	0	1	0
5	1	12	57	42692	7560	0.75777150166686624289	0	1	878.6990900116506964	0	NaN	NaN	0	1	1	0	1	0
5	1	12	58	41698	2370	0.75781780423130840063	0	1	1002.8697420057142153	0	NaN	NaN	0	1	1	0	1	0
5	1	12	59	62174	2563	0.7578640991123393178	0	1	1202.1864270063815638	0	NaN	NaN	0	1	1	0	1	0
5	1	12	60	48682	670	0.75791038689203560352	0	1	1516.5686370019102469	0	NaN	NaN	0	1	1	0	1	0
5	1	12	61	49091	9409	0.75795668596401810646	0	1	720.82478099036961794	0	NaN	NaN	0	1	1	0	1	0
5	1	12	62	63884	9681	0.75800298014655709267	0	1	2059.6686380013125017	0	NaN	NaN	0	1	1	0	1	0
5	2	1	1	42881	8819	7.6954146387288346887	0	1	1266.0318620037287474	0	NaN	NaN	0	1	1	0	1	0
5	2	1	2	69007	2972	7.6954609396634623408	0	1	1413.8091700151562691	0	NaN	NaN	0	1	1	0	1	0
5	2	1	3	14595	175	7.6955072288401424885	0	1	1302.1793150110170245	0	NaN	NaN	0	1	1	0	1	0
5	2	1	4	67138	6169	7.69555353291798383	1	0	1843.1196290184743702	0	219	NaN	0	1	1	0	1	0
5	2	1	5	15006	1591	7.6955998190678656101	0	1	1145.5733060138300061	0	NaN	NaN	0	1	1	0	1	0
5	2	1	6	61877	4692	7.6956461204681545496	0	1	986.30525404587388039	0	NaN	NaN	0	1	1	0	1	0
5	2	1	7	49406	4152	7.6956924034748226404	0	1	1221.1624199990183115	0	NaN	NaN	0	1	1	0	1	0
5	2	1	8	1793	7167	7.6957387067377567291	0	1	1438.8690759660676122	0	NaN	NaN	0	1	1	0	1	0
5	2	1	9	7044	4465	7.6957849920727312565	1	0	1642.8658350487239659	0	154	NaN	0	1	1	0	1	0
5	2	1	10	54243	5313	7.6958312912611290812	0	1	972.1391259809024632	0	NaN	NaN	0	1	1	0	1	0
5	2	1	11	24481	305	7.6958775770617648959	0	1	1790.6704749912023544	0	NaN	NaN	0	1	1	0	1	0
5	2	1	12	41784	9575	7.6959238874260336161	1	0	1330.1694329711608589	0	346	NaN	0	1	1	0	1	0
5	2	1	13	36975	487	7.6959701681043952703	0	1	1602.7169330045580864	0	NaN	NaN	0	1	1	0	1	0
5	2	1	14	4973	3997	7.6960164684569463134	0	1	1460.8067719964310527	0	NaN	NaN	0	1	1	0	1	0
5	2	1	15	49887	7390	7.6961090540280565619	1	0	2729.7541080042719841	0	233	NaN	0	1	1	0	1	0
5	2	1	16	71719	1277	7.696155344252474606	0	1	983.19238994736224413	0	NaN	NaN	0	1	1	0	1	0
5	2	1	17	10726	2195	7.6962016387842595577	0	1	1516.4580050040967762	0	NaN	NaN	0	1	1	0	1	0
5	2	1	18	3457	5101	7.6962479358771815896	0	1	1211.8212949717417359	0	NaN	NaN	0	1	1	0	1	0
5	2	1	19	1721	1826	7.6962942301761358976	0	1	1829.4706870219670236	0	NaN	NaN	0	1	1	0	1	0
5	2	1	20	15006	1591	7.696340520866215229	1	1	923.13720798119902611	0	14	NaN	1	1	0	1	2	0
5	2	1	21	57523	2080	7.6963868193561211228	0	1	1130.7796519831754267	0	NaN	NaN	0	1	1	0	1	0
5	2	1	22	9863	3804	7.6964331049239262938	0	1	1316.0217850236222148	0	NaN	NaN	0	1	1	0	1	0
5	2	1	23	5486	2773	7.6964793991064652801	0	1	1255.6143249967135489	0	NaN	NaN	0	1	1	0	1	0
5	2	1	24	9350	5345	7.6965719811851158738	1	0	1068.854767014272511	0	190	NaN	0	1	1	0	1	0
5	2	1	25	54096	7130	7.6966181846801191568	1	1	1602.3746169521473348	0	336	497	0	0	0	1	2	0
5	2	1	26	32894	3770	7.6966644750209525228	1	0	1761.4647910231724381	0	646	NaN	0	1	1	0	1	0
5	2	1	27	66877	1386	7.6967107695527374744	1	1	1985.1767020300030708	0	78	NaN	0	0	0	1	2	0
5	2	1	28	60273	9317	7.6967570639681071043	0	1	2502.4836200173012912	0	NaN	NaN	0	1	1	0	1	0
5	2	1	29	49618	8105	7.6968033602461218834	0	1	1875.6106419605202973	0	NaN	NaN	0	1	1	0	1	0
5	2	1	30	66435	8280	7.6968496630433946848	1	0	1441.8826150358654559	0	413	NaN	0	1	1	0	1	0
5	2	1	31	36911	485	7.6968959543155506253	0	1	1275.0577690312638879	0	NaN	NaN	0	1	1	0	1	0
5	2	1	32	16703	200	7.6969422425609081984	0	1	1525.2008899697102606	0	NaN	NaN	0	1	1	0	1	0
5	2	1	33	56514	9130	7.6969885405851528049	0	1	1674.8531250050291419	0	NaN	NaN	0	1	1	0	1	0
5	2	1	34	72410	2587	7.6970348323229700327	0	1	1702.9991959570907056	0	NaN	NaN	0	1	1	0	1	0
5	2	1	35	18752	2904	7.6970811234787106514	0	1	1209.3540100031532347	0	NaN	NaN	0	1	1	0	1	0
5	2	1	36	5050	4239	7.6971737167332321405	0	1	1761.4573139580897987	0	NaN	NaN	0	1	1	0	1	0
5	2	1	37	15468	8001	7.6972200158052146435	0	1	1171.1700519663281739	0	NaN	NaN	0	1	1	0	1	0
5	2	1	38	29779	3312	7.6972663039341568947	0	1	969.61948700482025743	0	NaN	NaN	0	1	1	0	1	0
5	2	1	39	31982	6903	7.6973125998629257083	0	1	1405.6983459740877151	0	NaN	NaN	0	1	1	0	1	0
5	2	1	40	54243	5313	7.6973588888067752123	1	1	807.63761099660769105	0	29	NaN	1	1	0	1	2	0
5	2	1	41	46889	5567	7.6974051835713908076	0	1	1138.9697679551318288	0	NaN	NaN	0	1	1	0	1	0
5	2	1	42	35538	9012	7.6974514848552644253	0	1	962.14027400128543377	0	NaN	NaN	0	1	1	0	1	0
5	2	1	43	52584	5208	7.6974977776408195496	0	1	1841.9166809762828052	0	NaN	NaN	0	1	1	0	1	0
5	2	1	44	54606	3475	7.6975440698442980647	0	1	2656.0874540009535849	0	NaN	NaN	0	1	1	0	1	0
5	2	1	45	17814	2336	7.697590361931361258	1	1	1245.9725809749215841	0	366	433	0	0	0	1	2	0
5	2	1	46	61799	9008	7.6976829509949311614	1	0	2874.8224280425347388	0	192	NaN	0	1	1	0	1	0
5	2	1	47	52879	7974	7.6977292479714378715	1	1	1201.7400459735654294	0	333	539	0	0	0	1	2	0
5	2	1	48	15720	8441	7.6977755387779325247	1	0	1289.1763799707405269	0	582	NaN	0	1	1	0	1	0
5	2	1	49	5603	53	7.6978218365693464875	1	0	2026.3612410053610802	0	565	NaN	0	1	1	0	1	0
5	2	1	50	3627	14	7.6978681274922564626	1	0	1295.8093410125002265	0	224	NaN	0	1	1	0	1	0
5	2	1	51	6818	2255	7.69791432935744524	1	0	1167.9698199732229114	0	256	NaN	0	1	1	0	1	0
5	2	1	52	12731	4096	7.69796062505338341	0	1	1402.325361967086792	0	NaN	NaN	0	1	1	0	1	0
5	2	1	53	61749	848	7.6980069063138216734	0	1	1002.5953099830076098	0	NaN	NaN	0	1	1	0	1	0
5	2	1	54	20008	4139	7.6980532079469412565	0	1	1035.2168270037509501	0	NaN	NaN	0	1	1	0	1	0
5	2	1	55	52182	9969	7.6981457901420071721	0	1	2304.1527129826135933	0	NaN	NaN	0	1	1	0	1	0
5	2	1	56	56857	5604	7.6981920920079573989	0	0	1960.8991360291838646	0	NaN	NaN	0	0	0	1	2	0
5	2	1	57	58860	5629	7.6982383844442665577	0	1	1053.9445939939469099	0	NaN	NaN	0	1	1	0	1	0
5	2	1	58	19069	5555	7.6982846730388700962	0	1	1843.9987620222382247	0	NaN	NaN	0	1	1	0	1	0
5	2	1	59	8007	86	7.6983309666393324733	0	0	2004.575052997097373	0	NaN	NaN	0	0	0	1	2	0
5	2	1	60	62614	7292	7.6983772685052827001	0	1	1912.7141920034773648	0	NaN	NaN	0	1	1	0	1	0
5	2	1	61	72163	2391	7.6984235629206523299	0	1	1281.0988700366578996	0	NaN	NaN	0	1	1	0	1	0
5	2	1	62	59440	1282	7.6984698502346873283	0	1	1942.583071009721607	0	NaN	NaN	0	1	1	0	1	0
5	2	1	63	863	2152	7.6985161426709964871	1	1	2564.6014210069552064	0	77	NaN	0	0	0	1	2	0
5	2	2	1	69018	7785	7.7001039257738739252	0	1	1154.386894020717591	0	NaN	NaN	0	1	1	0	1	0
5	2	2	2	15287	4946	7.700150231015868485	0	1	1156.6917009768076241	0	NaN	NaN	0	1	1	0	1	0
5	2	2	3	27394	6483	7.7001965208910405636	0	0	1737.934206030331552	0	NaN	NaN	0	0	0	1	2	0
5	2	2	4	46990	1436	7.700242713326588273	0	0	1334.9013240076601505	0	NaN	NaN	0	0	0	1	2	0
5	2	2	5	55285	6808	7.7002890142612159252	0	1	945.49823697889223695	0	NaN	NaN	0	1	1	0	1	0
5	2	2	6	21849	6129	7.7003352963365614414	0	1	1323.3601480023935437	0	NaN	NaN	0	1	1	0	1	0
5	2	2	7	67058	3625	7.7003815948264673352	0	1	1426.4555189874954522	0	NaN	NaN	0	1	1	0	1	0
5	2	2	8	29554	4127	7.7004278941312804818	0	1	1089.920723985414952	0	NaN	NaN	0	1	1	0	1	0
5	2	2	9	4787	36	7.7004741934360936284	1	1	1509.7707650274969637	0	131	418	0	0	0	1	2	0
5	2	2	10	67058	3625	7.7005204870365560055	1	1	1284.7964070388115942	0	2	NaN	1	1	0	1	2	0
5	2	2	11	11422	8509	7.7006130712106823921	0	1	2455.9817779809236526	0	NaN	NaN	0	1	1	0	1	0
5	2	2	12	13435	7629	7.7006593594560399652	0	1	1009.6857579774223268	0	NaN	NaN	0	1	1	0	1	0
5	2	2	13	10100	1218	7.7007056593429297209	1	1	2102.4616869981400669	0	170	NaN	0	0	0	1	2	0
5	2	2	14	30993	6410	7.7007519528269767761	1	0	1164.1305719967931509	0	267	NaN	0	1	1	0	1	0
5	2	2	15	13139	159	7.7007982403738424182	0	1	1537.317986018024385	0	NaN	NaN	0	1	1	0	1	0
5	2	2	16	36911	485	7.7008445413084700704	1	1	1152.7788499952293932	0	47	NaN	1	1	0	1	2	0
5	2	2	17	21260	3127	7.700890836538746953	0	1	1271.0543969878926873	0	NaN	NaN	0	1	1	0	1	0
5	2	2	18	51440	9744	7.7009371224557980895	0	1	1949.1794430068694055	0	NaN	NaN	0	1	1	0	1	0
5	2	2	19	51887	3412	7.7009834161726757884	0	1	2936.2661049817688763	0	NaN	NaN	0	1	1	0	1	0
5	2	2	20	46811	9461	7.7010297178057953715	0	1	1303.4092150046490133	0	NaN	NaN	0	1	1	0	1	0
5	2	2	21	1591	4620	7.7011223040753975511	1	1	2543.5651720035821199	1	181	NaN	0	0	1	1	2	0
5	2	2	22	12409	4250	7.7011685998877510428	0	0	2329.816860961727798	1	NaN	NaN	0	0	1	1	2	0
5	2	2	23	8195	8816	7.70121489476878196	1	0	841.65780304465442896	0	272	NaN	0	1	1	0	1	0
5	2	2	24	72410	2587	7.7012611891841515899	1	1	1306.9087160401977599	0	52	NaN	1	1	0	1	2	0
5	2	2	25	27387	7627	7.7013074737042188644	0	1	1709.4569419859908521	0	NaN	NaN	0	1	1	0	1	0
5	2	2	26	25455	327	7.7013537716120481491	0	1	1621.5141919674351811	0	NaN	NaN	0	1	1	0	1	0
5	2	2	27	48505	7054	7.7014000703347846866	0	1	1411.9805300142616034	0	NaN	NaN	0	1	1	0	1	0
5	2	2	28	47451	6637	7.701446365681476891	0	1	1443.8831299776211381	0	NaN	NaN	0	1	1	0	1	0
5	2	2	29	46223	4945	7.7014926518313586712	0	1	1232.2023389860987663	0	NaN	NaN	0	1	1	0	1	0
5	2	2	30	69212	3524	7.7015389517182484269	0	1	1622.9089740081690252	0	NaN	NaN	0	1	1	0	1	0
5	2	2	31	45097	8854	7.7015852405456826091	0	1	2158.0319649656303227	0	NaN	NaN	0	1	1	0	1	0
5	2	2	32	37639	3822	7.7016314363572746515	1	1	1503.7918200250715017	0	123	172	0	0	0	1	2	0
5	2	2	33	14529	173	7.7016777301905676723	1	1	1682.8580209985375404	0	120	244	0	0	0	1	2	0
5	2	2	34	5340	3975	7.7017703281017020345	0	1	1703.9416810148395598	0	NaN	NaN	0	1	1	0	1	0
5	2	2	35	64556	8077	7.7018166141351684928	0	1	1359.369365032762289	0	NaN	NaN	0	1	1	0	1	0
5	2	2	36	2742	3935	7.701862915069796145	0	1	1860.7271179789677262	0	NaN	NaN	0	1	1	0	1	0
5	2	2	37	52584	5208	7.7019092018017545342	1	1	2103.3145080436952412	0	56	NaN	1	1	0	1	2	0
5	2	2	38	9746	3179	7.7019555047154426575	0	1	1701.7656770185567439	0	NaN	NaN	0	1	1	0	1	0
5	2	2	39	54013	1189	7.7020017929608002305	0	1	2351.0269359685480595	0	NaN	NaN	0	1	1	0	1	0
5	2	2	40	28519	8403	7.7020480914507061243	0	0	1573.4168020426295698	0	NaN	NaN	0	0	0	1	2	0
5	2	2	41	38772	1776	7.7020943841198459268	0	1	1417.9412379744462669	0	NaN	NaN	0	1	1	0	1	0
5	2	2	42	59762	4187	7.7021406800486147404	0	1	2539.1914570354856551	0	NaN	NaN	0	1	1	0	1	0
5	2	2	43	52856	3769	7.7021869671298190951	0	1	1404.6369660063646734	0	NaN	NaN	0	1	1	0	1	0
5	2	2	44	27799	4812	7.7022795574739575386	0	0	3689.1682820278219879	0	NaN	NaN	0	0	0	1	2	0
5	2	2	45	66376	6635	7.7023258572444319725	0	1	705.64956002635881305	0	NaN	NaN	0	1	1	0	1	0
5	2	2	46	13788	1490	7.7023721513105556369	1	0	1240.4308029799722135	0	157	NaN	0	1	1	0	1	0
5	2	2	47	50310	9571	7.7024184385081753135	1	0	1292.8094579838216305	0	280	NaN	0	1	1	0	1	0
5	2	2	48	66877	1386	7.7024647373473271728	1	1	969.57850898616015911	0	83	162	1	1	0	1	2	0
5	2	2	49	67101	5896	7.7025110354879871011	1	0	1856.9995909929275513	0	331	NaN	0	1	1	0	1	0
5	2	2	50	43780	3371	7.702557320473715663	0	1	1573.8976920256391168	0	NaN	NaN	0	1	1	0	1	0
5	2	2	51	15768	8303	7.7026036211755126715	0	1	981.76622804021462798	0	NaN	NaN	0	1	1	0	1	0
5	2	2	52	22352	8258	7.7026499166386201978	0	1	1554.7537829843349755	0	NaN	NaN	0	1	1	0	1	0
5	2	2	53	13160	2854	7.7026962022064253688	0	1	1643.059575988445431	0	NaN	NaN	0	1	1	0	1	0
5	2	2	54	32305	5745	7.7027887946460396051	1	1	1816.1206440418027341	0	229	344	0	0	0	1	2	0
5	2	2	55	14256	8175	7.702835088362917304	1	1	1328.2804139889776707	0	449	NaN	0	0	0	1	2	0
5	2	2	56	30973	6851	7.7028813807992264628	0	1	937.49812099849805236	0	NaN	NaN	0	1	1	0	1	0
5	2	2	57	9231	108	7.7029275784734636545	0	1	1410.7384029775857925	0	NaN	NaN	0	1	1	0	1	0
5	2	2	58	14595	175	7.7029738742858171463	1	1	1590.0318209896795452	0	117	NaN	1	1	0	1	2	0
5	2	2	59	30973	6851	7.7030201669549569488	1	1	1030.2208029897883534	0	2	NaN	1	1	0	1	2	0
5	2	2	60	15768	8303	7.7030664610210806131	1	1	832.49592996435239911	0	8	NaN	1	1	0	1	2	0
5	2	2	61	46135	3663	7.7031127532245591283	0	1	1185.94851199304685	0	NaN	NaN	0	1	1	0	1	0
5	2	2	62	1721	1826	7.7031590491533279419	1	1	1203.8607550202868879	0	105	NaN	1	1	0	1	2	0
5	2	3	1	61749	848	7.7047471072291955352	1	1	1039.2630599671974778	0	72	NaN	1	1	0	1	2	0
5	2	3	2	30419	1143	7.7047933939611539245	0	1	1157.7350050210952759	0	NaN	NaN	0	1	1	0	1	0
5	2	3	3	2137	2020	7.7048396971076726913	0	1	2949.981754005420953	0	NaN	NaN	0	1	1	0	1	0
5	2	3	4	70882	3783	7.7048859890783205628	0	1	1047.1642519696615636	0	NaN	NaN	0	1	1	0	1	0
5	2	3	5	27799	4812	7.7049322848906740546	1	1	702.91177899343892932	0	22	NaN	1	1	0	1	2	0
5	2	3	6	9049	106	7.7049785864073783159	0	1	2521.4611970004625618	0	NaN	NaN	0	1	1	0	1	0
5	2	3	7	49762	4361	7.7050248871091753244	0	1	1048.7642539665102959	0	NaN	NaN	0	1	1	0	1	0
5	2	3	8	72859	1626	7.7050711829215288162	0	1	1102.129184000659734	0	NaN	NaN	0	1	1	0	1	0
5	2	3	9	5764	3996	7.7051174717489629984	1	1	1053.8236990105360746	0	568	NaN	0	0	0	1	2	0
5	2	3	10	16790	4292	7.7051637800177559257	0	1	1802.7449270011857152	0	NaN	NaN	0	1	1	0	1	0
5	2	3	11	51430	8706	7.7052563652396202087	1	0	1932.2576539707370102	0	204	NaN	0	1	1	0	1	0
5	2	3	12	13857	1420	7.7053026505745947361	0	1	1449.3270840030163527	0	NaN	NaN	0	1	1	0	1	0
5	2	3	13	6984	9893	7.7053489721147343516	0	1	2042.8486660239286721	0	NaN	NaN	0	1	1	0	1	0
5	2	3	14	43879	7841	7.7053952367277815938	0	0	2569.4599790149368346	0	NaN	NaN	0	0	0	1	2	0
5	2	3	15	71307	1803	7.7054415564052760601	0	1	1333.2137780380435288	0	NaN	NaN	0	1	1	0	1	0
5	2	3	16	63567	1040	7.7054878243943676353	1	1	1974.3055659928359091	0	232	NaN	0	0	0	1	2	0
5	2	3	17	22276	3284	7.7055341517552733421	1	1	2742.3165169893763959	0	761	NaN	0	0	0	1	2	0
5	2	3	18	57914	1498	7.7055804147385060787	0	1	1301.3798149768263102	0	NaN	NaN	0	1	1	0	1	0
5	2	3	19	44853	2485	7.7056267508305609226	0	1	1034.2848459840752184	0	NaN	NaN	0	1	1	0	1	0
5	2	3	20	61799	9008	7.7057193472282961011	1	1	1226.6601049923337996	0	98	291	1	1	0	1	2	0
5	2	3	21	59956	9484	7.7057655835524201393	1	1	923.10578800970688462	0	195	567	0	0	0	1	2	0
5	2	3	22	59224	1994	7.7058119436260312796	1	1	1098.4103010268881917	0	199	NaN	0	0	0	1	2	0
5	2	3	23	46000	625	7.7058581778546795249	0	1	1758.9085479849018157	0	NaN	NaN	0	1	1	0	1	0
5	2	3	24	42881	8819	7.7059045394416898489	1	1	1451.7695470131002367	0	147	NaN	1	1	0	1	2	0
5	2	3	25	6799	7020	7.7059507641242817044	1	0	2448.649828031193465	0	426	NaN	0	1	1	0	1	0
5	2	3	26	42852	570	7.7059971372364088893	0	1	1775.1072369865141809	0	NaN	NaN	0	1	1	0	1	0
5	2	3	27	52960	7066	7.706043356447480619	0	1	1372.845589998178184	0	NaN	NaN	0	1	1	0	1	0
5	2	3	28	68847	7410	7.7060897340998053551	0	1	2394.7927720146253705	0	NaN	NaN	0	1	1	0	1	0
5	2	3	29	72846	7306	7.7061359375948086381	0	1	2114.2069410416297615	0	NaN	NaN	0	1	1	0	1	0
5	2	3	30	69018	7785	7.7062285253778100014	1	1	2325.0830169999971986	0	90	NaN	1	1	0	1	2	0
5	2	3	31	49406	4152	7.7062749320175498724	1	1	1547.7084910380654037	0	148	NaN	1	1	0	2	2	0
5	2	3	32	7374	1645	7.7063211199129000306	1	0	2002.7744030230678618	0	682	NaN	0	1	1	0	1	0
5	2	3	33	22516	276	7.7063675144454464316	0	1	1503.7836460396647453	0	NaN	NaN	0	1	2	0	1	0
5	2	3	34	52420	1475	7.7064137072302401066	0	1	2091.1019910126924515	0	NaN	NaN	0	1	1	0	1	0
5	2	3	35	47027	1102	7.7064601109595969319	0	1	2100.7560479920357466	0	NaN	NaN	0	1	1	0	1	0
5	2	3	36	27799	4812	7.7065061985049396753	1	1	714.0293609700165689	0	30	53	1	1	0	1	2	0
5	2	3	37	49406	4152	7.7065525003708899021	1	1	1119.9785750359296799	0	5	154	1	1	0	1	2	0
5	2	3	38	36911	485	7.7065987817477434874	1	1	1104.1803070111200213	0	83	131	1	1	0	1	2	0
5	2	3	39	40841	534	7.7066450819838792086	0	1	2834.4280400197021663	0	NaN	NaN	0	1	1	0	1	0
5	2	3	40	32944	7561	7.7066913731396198273	1	1	2228.4723519696854055	0	173	296	0	0	0	1	2	0
5	2	3	41	15993	7116	7.7067376627819612622	0	1	1085.4017590172588825	0	NaN	NaN	0	1	1	0	1	0
5	2	3	42	10909	4035	7.7068302540574222803	0	1	1203.3576630055904388	0	NaN	NaN	0	1	1	0	1	0
5	2	3	43	33792	6077	7.7068765508010983467	0	1	1311.9998530019074678	0	NaN	NaN	0	1	1	0	1	0
5	2	3	44	69059	4593	7.7069228455657139421	0	1	1439.834435994271189	0	NaN	NaN	0	1	1	0	1	0
5	2	3	45	12081	4442	7.7069691353244706988	0	1	1607.2360679972916842	0	NaN	NaN	0	1	1	0	1	0
5	2	3	46	56514	9130	7.7070154270622879267	1	1	1091.8224829947575927	0	137	NaN	1	1	0	1	2	0
5	2	3	47	61749	848	7.7070617206627503037	1	1	820.64415200147777796	0	45	118	1	1	0	1	2	0
5	2	3	48	54334	5221	7.7071080182213336229	0	1	1464.1596020082943141	0	NaN	NaN	0	1	1	0	1	0
5	2	3	49	54243	5313	7.7071543073980137706	1	1	944.79355099610984325	0	133	163	1	1	0	1	2	0
5	2	3	50	45602	4893	7.7072006107773631811	0	1	939.56680898554623127	0	NaN	NaN	0	1	1	0	1	0
5	2	3	51	9028	105	7.7072469050763174891	0	1	1301.7754169995896518	0	NaN	NaN	0	1	1	0	1	0
5	2	3	52	8449	1937	7.7072931976290419698	0	1	1422.7785329567268491	0	NaN	NaN	0	1	1	0	1	0
5	2	3	53	3882	4900	7.7073394955368712544	1	1	1739.9409979698248208	0	802	NaN	0	0	0	1	2	0
5	2	3	54	30973	6851	7.7074320809915661812	1	1	856.92190000554546714	0	56	59	1	1	0	1	2	0
5	2	3	55	71474	6265	7.7074783692369237542	0	1	2102.6416569948196411	0	NaN	NaN	0	1	1	0	1	0
5	2	3	56	3416	1069	7.7075246608583256602	1	0	1808.490547991823405	0	276	NaN	0	1	1	0	1	0
5	2	3	57	10726	2195	7.7075709580676630139	1	1	1268.5844489606097341	0	164	NaN	1	1	0	1	2	0
5	2	3	58	16561	2484	7.7076172563247382641	0	0	2205.778052972164005	0	NaN	NaN	0	0	0	1	2	0
5	2	3	59	4590	3699	7.7076635556295514107	0	0	2510.3613020037300885	0	NaN	NaN	0	0	0	1	2	0
5	2	3	60	64896	3940	7.7077098373556509614	0	1	1157.6488789869472384	0	NaN	NaN	0	1	1	0	1	0
5	2	3	61	48505	7054	7.7077561408514156938	1	1	881.8182280519977212	0	95	NaN	1	1	0	2	2	0
5	2	3	62	33324	2492	7.7078024320071563125	0	1	1282.1611930266954005	0	NaN	NaN	0	1	1	0	1	0
5	2	3	63	13435	7629	7.7078486322425305843	1	1	1145.0158979860134423	0	112	NaN	1	1	0	1	2	0
5	2	4	1	56534	5273	7.7094681017333641648	1	0	1279.9836599733680487	0	247	NaN	0	1	1	0	1	0
5	2	4	2	10176	4467	7.709514396614395082	0	1	1205.5596570135094225	0	NaN	NaN	0	1	1	0	1	0
5	2	4	3	56857	5604	7.709560628398321569	1	1	1705.5074719828553498	0	134	NaN	1	1	0	1	2	0
5	2	4	4	29554	4127	7.7096069914987310767	1	1	996.57453404506668448	0	120	NaN	1	1	0	1	2	0
5	2	4	5	4963	5242	7.7096532118739560246	0	1	1909.5978459808975458	0	NaN	NaN	0	1	1	0	1	0
5	2	4	6	53892	742	7.7096995885949581861	0	1	995.09067204780876637	0	NaN	NaN	0	1	1	0	1	0
5	2	4	7	25939	5995	7.7097458115313202143	0	1	2346.938684000633657	0	NaN	NaN	0	1	1	0	1	0
5	2	4	8	59529	6183	7.709792172652669251	0	1	1151.8426220281980932	0	NaN	NaN	0	1	1	0	1	0
5	2	4	9	53886	3974	7.7098383934935554862	0	1	1044.1633419832214713	0	NaN	NaN	0	1	1	0	1	0
5	2	4	10	23068	3927	7.7099309772020205855	0	1	1226.3120569987222552	0	NaN	NaN	0	1	1	0	1	0
5	2	4	11	16381	9913	7.7099773664958775043	1	1	1349.0976250031962991	0	874	NaN	0	0	0	1	2	0
5	2	4	12	52960	7066	7.7100235744146630168	1	1	867.21999599831178784	0	47	NaN	1	1	0	1	2	0
5	2	4	13	61874	853	7.7100699611473828554	0	1	2561.5952860098332167	0	NaN	NaN	0	1	1	0	1	0
5	2	4	14	13026	7979	7.7101161576574668288	0	1	1159.1464319499209523	0	NaN	NaN	0	1	1	0	1	0
5	2	4	15	46961	2247	7.7101625589421018958	0	1	1126.1542779975570738	0	NaN	NaN	0	1	1	0	1	0
5	2	4	16	66102	4061	7.7102087534731253982	1	0	1491.9800669886171818	0	855	NaN	0	1	1	0	1	0
5	2	4	17	60850	7697	7.7102551559219136834	1	0	1150.8940550265833735	0	392	NaN	0	1	1	0	1	0
5	2	4	18	13584	2287	7.7103013290325179696	0	1	957.89030299056321383	0	NaN	NaN	0	1	1	0	1	0
5	2	4	19	12139	9977	7.7103939264779910445	0	1	1203.7859080010093749	0	NaN	NaN	0	1	1	0	1	0
5	2	4	20	42009	6728	7.7104401171673089266	0	1	2226.8923350493423641	0	NaN	NaN	0	1	1	0	1	0
5	2	4	21	8083	5811	7.710486419266089797	0	1	2014.2288380302488804	0	NaN	NaN	0	1	1	0	1	0
5	2	4	22	10857	3586	7.7105327008757740259	0	1	1319.177827041130513	0	NaN	NaN	0	1	1	0	1	0
5	2	4	23	10021	2584	7.7105789975030347705	0	1	1151.0349109885282815	0	NaN	NaN	0	1	1	0	1	0
5	2	4	24	70	5905	7.7106252966914325953	0	1	1404.2985460255295038	0	NaN	NaN	0	1	1	0	1	0
5	2	4	25	46758	6619	7.7106715934351086617	0	1	1035.4328959947451949	0	NaN	NaN	0	1	1	0	1	0
5	2	4	26	56534	5273	7.7107178826117888093	1	1	872.2601250046864152	0	24	272	1	1	0	1	2	0
5	2	4	27	3882	4900	7.7107642394257709384	1	1	847.36051503568887711	0	36	839	1	1	0	1	2	0
5	2	4	28	56605	1482	7.7108105460647493601	1	1	3382.9848160385154188	0	323	NaN	0	0	0	1	2	0
5	2	4	29	21733	6719	7.7108568358235061169	0	1	1463.9866820070892572	0	NaN	NaN	0	1	1	0	1	0
5	2	4	30	6799	7020	7.7109031422296538949	1	1	896.32305002305656672	0	67	494	1	1	0	1	2	0
5	2	4	31	7896	5563	7.710995738860219717	0	0	1740.0111819733865559	0	NaN	NaN	0	0	0	1	2	0
5	2	4	32	8538	7950	7.7110420257085934281	0	1	1014.1257069772109389	0	NaN	NaN	0	1	1	0	1	0
5	2	4	33	23331	3249	7.7110883434070274234	0	1	1331.4612279646098614	0	NaN	NaN	0	1	1	0	1	0
5	2	4	34	28912	8261	7.7111346166348084807	0	1	1710.7452299678698182	0	NaN	NaN	0	1	1	0	1	0
5	2	4	35	46319	8768	7.7111809297930449247	0	1	1657.5878789881244302	0	NaN	NaN	0	1	1	0	1	0
5	2	4	36	12139	9977	7.711227217223495245	1	1	828.74824601458385587	0	16	NaN	1	1	0	1	2	0
5	2	4	37	6107	9537	7.711273527005687356	0	1	1550.5217260215431452	0	NaN	NaN	0	1	1	0	1	0
5	2	4	38	18275	7895	7.7113198145525529981	0	1	1126.2896709959022701	0	NaN	NaN	0	1	1	0	1	0
5	2	4	39	44814	2206	7.71136612503323704	0	1	1099.0528109832666814	0	NaN	NaN	0	1	1	0	1	0
5	2	4	40	65763	9316	7.7114124065265059471	0	1	1080.0681800465099514	0	NaN	NaN	0	1	1	0	1	0
5	2	4	41	56435	6378	7.711458597332239151	1	0	1219.3528090137988329	0	259	NaN	0	1	1	0	1	0
5	2	4	42	43994	4567	7.7115049988497048616	0	1	1051.2594739557243884	0	NaN	NaN	0	1	1	0	1	0
5	2	4	43	8538	7950	7.7115974766202270985	1	1	1347.2772769746370614	0	10	NaN	1	1	0	1	2	0
5	2	4	44	59342	8037	7.7116437760414555669	0	1	1843.2453430141322315	0	NaN	NaN	0	1	1	0	1	0
5	2	4	45	7847	4211	7.7116899691754952073	1	0	1035.137152997776866	0	404	NaN	0	1	1	0	1	0
5	2	4	46	59812	2604	7.71173626440577209	1	1	2766.1576899699866772	1	502	516	0	0	1	1	2	0
5	2	4	47	46757	3070	7.7117825617315247655	0	1	1360.5290539562702179	0	NaN	NaN	0	1	1	0	1	0
5	2	4	48	11902	5826	7.7118288424098864198	0	1	1935.3745600092224777	0	NaN	NaN	0	1	1	0	1	0
5	2	4	49	63182	2750	7.7118751383386552334	0	1	741.89446901436895132	0	NaN	NaN	0	1	1	0	1	0
5	2	4	50	55019	4522	7.7119214355479925871	1	1	1988.7493610149249434	0	300	317	0	0	0	1	2	0
5	2	4	51	40301	5972	7.711967732640914619	0	1	1783.562657015863806	0	NaN	NaN	0	1	1	0	1	0
5	2	4	52	28519	8403	7.7120140268234536052	1	1	882.18700600555166602	0	136	NaN	1	1	0	1	2	0
5	2	4	53	53892	742	7.7120603221701458097	1	1	780.05920897703617811	0	46	NaN	1	1	0	1	2	0
5	2	4	54	26340	3350	7.7121066118124872446	0	1	1645.2465490438044071	0	NaN	NaN	0	1	1	0	1	0
5	2	4	55	67138	6169	7.7121992011088877916	1	1	1687.7188600483350456	0	238	458	1	1	0	1	2	0
5	2	4	56	53859	740	7.7122454926138743758	0	1	2238.19478799123317	0	NaN	NaN	0	1	1	0	1	0
5	2	4	57	63946	4272	7.7122917907545343041	1	1	2340.7027620123699307	0	287	NaN	0	0	0	1	2	0
5	2	4	58	48667	5670	7.7123380756238475442	1	0	1581.3813789864070714	0	301	NaN	0	1	1	0	1	0
5	2	4	59	30848	412	7.712384377489797771	0	1	1174.9219860066659749	0	NaN	NaN	0	1	1	0	1	0
5	2	4	60	36317	7873	7.7124306719051674008	0	1	1239.0162139781750739	0	NaN	NaN	0	1	1	0	1	0
5	2	4	61	22783	282	7.7124769613146781921	0	1	2806.4006519853137434	0	NaN	NaN	0	1	1	0	1	0
5	2	4	62	10100	1218	7.7125232632970437407	1	1	866.25822196947410703	0	173	344	1	1	0	1	2	0
5	2	5	1	28519	8403	7.7149663849268108606	1	1	980.14811502071097493	0	10	147	1	1	0	1	2	0
5	2	5	2	65246	1122	7.7150126865599304438	1	0	1315.582600946072489	0	312	NaN	0	1	1	0	1	0
5	2	5	3	53859	740	7.7150589751545339823	1	1	990.24488101713359356	0	8	NaN	1	1	0	1	2	0
5	2	5	4	37360	6328	7.7151052680565044284	0	1	1307.2462269919924438	0	NaN	NaN	0	1	1	0	1	0
5	2	5	5	71837	9548	7.7151515631703659892	0	1	1771.1741660023108125	0	NaN	NaN	0	1	1	0	1	0
5	2	5	6	15085	9510	7.7151978680631145835	0	1	1367.8708509542047977	0	NaN	NaN	0	1	1	0	1	0
5	2	5	7	49762	4361	7.7152441516518592834	1	1	945.61691803392022848	0	124	NaN	1	1	0	1	2	0
5	2	5	8	31145	1368	7.7152904515387490392	0	1	1008.1392629654146731	0	NaN	NaN	0	1	1	0	1	0
5	2	5	9	67499	7912	7.7153367336140945554	0	1	1068.7895790324546397	0	NaN	NaN	0	1	1	0	1	0
5	2	5	10	70600	7719	7.7153830451425164938	0	1	1173.8306169863790274	0	NaN	NaN	0	1	1	0	1	0
5	2	5	11	30082	402	7.7154755573719739914	0	1	1889.6898410166613758	0	NaN	NaN	0	1	1	0	1	0
5	2	5	12	1425	6404	7.7155218144180253148	0	1	1116.5793089894577861	0	NaN	NaN	0	1	1	0	1	0
5	2	5	13	15768	8303	7.7155681139556691051	1	1	838.31123000709339976	0	139	148	1	1	0	1	2	0
5	2	5	14	62769	2937	7.7156144033651798964	0	1	1278.1739989877678454	0	NaN	NaN	0	1	1	0	1	0
5	2	5	15	44647	9883	7.715660701971501112	0	1	1457.6319330371916294	0	NaN	NaN	0	1	1	0	1	0
5	2	5	16	21260	3127	7.7157069876557216048	1	1	2450.464210007339716	0	185	NaN	1	1	0	1	2	0
5	2	5	17	42852	570	7.7157532827695831656	1	1	944.41953999921679497	0	115	NaN	1	1	0	1	2	0
5	2	5	18	5879	55	7.7157995864981785417	0	1	2037.4247679719701409	0	NaN	NaN	0	1	1	0	1	0
5	2	5	19	1623	4918	7.7158458729973062873	0	1	1303.0137239838950336	0	NaN	NaN	0	1	1	0	1	0
5	2	5	20	19491	7027	7.7158921664813533425	0	1	1716.6124359937384725	0	NaN	NaN	0	1	1	0	1	0
5	2	5	21	11745	1905	7.7159847609000280499	0	1	2624.8355799471028149	0	NaN	NaN	0	1	1	0	1	0
5	2	5	22	34816	8442	7.7160310548497363925	0	1	967.93253900250419974	0	NaN	NaN	0	1	1	0	1	0
5	2	5	23	67904	5111	7.7160773525247350335	0	1	1174.5957500534132123	0	NaN	NaN	0	1	1	0	1	0
5	2	5	24	15180	6764	7.7161236426327377558	0	1	1553.6400619894266129	0	NaN	NaN	0	1	1	0	1	0
5	2	5	25	49927	9665	7.7161699375137686729	0	1	985.1624799775891006	0	NaN	NaN	0	1	1	0	1	0
5	2	5	26	40570	6618	7.7162162266904488206	0	1	1668.2106280350126326	0	NaN	NaN	0	1	1	0	1	0
5	2	5	27	19548	8844	7.716262520058080554	0	1	1478.0878470046445727	0	NaN	NaN	0	1	1	0	1	0
5	2	5	28	50274	5631	7.7163088216912001371	0	1	1547.0033280435018241	0	NaN	NaN	0	1	1	0	1	0
5	2	5	29	26436	349	7.7163551098201423883	0	1	1764.6534250234253705	0	NaN	NaN	0	1	1	0	1	0
5	2	5	30	64864	6574	7.7164477005135267973	0	0	2460.8610250288620591	0	NaN	NaN	0	0	0	1	2	0
5	2	5	31	54913	9972	7.7164939874783158302	1	0	1241.3730949629098177	0	829	NaN	0	1	1	0	1	0
5	2	5	32	36822	6444	7.716540289344266057	0	1	1002.4502570158801973	0	NaN	NaN	0	1	1	0	1	0
5	2	5	33	49438	2830	7.7165865828283131123	1	0	1726.1425020406022668	0	402	NaN	0	1	1	0	1	0
5	2	5	34	15212	8399	7.7166328782914206386	0	1	1017.960970988497138	0	NaN	NaN	0	1	1	0	1	0
5	2	5	35	61931	4244	7.7166791717754676938	0	1	1803.7367779761552811	0	NaN	NaN	0	1	1	0	1	0
5	2	5	36	6123	3515	7.7167253674706444144	0	0	2066.1694359732791781	0	NaN	NaN	0	0	0	1	2	0
5	2	5	37	15993	7116	7.7167716592084616423	1	1	1254.5128909987397492	0	120	NaN	1	1	0	1	2	0
5	2	5	38	42809	8678	7.7168179539730772376	0	1	1321.9455999787896872	0	NaN	NaN	0	1	1	0	1	0
5	2	5	39	1366	5890	7.7168642529286444187	0	1	1045.452799997292459	0	NaN	NaN	0	1	1	0	1	0
5	2	5	40	42975	4838	7.7169105465291067958	0	1	1672.6002549985423684	0	NaN	NaN	0	1	1	0	1	0
5	2	5	41	3570	3861	7.7170031329151242971	0	1	1655.1690459600649774	0	NaN	NaN	0	1	1	0	1	0
5	2	5	42	42500	3728	7.7170494243036955595	0	1	2792.8510120254941285	0	NaN	NaN	0	1	1	0	1	0
5	2	5	43	42487	7625	7.7170957211637869477	0	1	1023.3176610199734569	0	NaN	NaN	0	1	1	0	1	0
5	2	5	44	8484	6361	7.7171420116210356355	0	1	1407.9444080125540495	0	NaN	NaN	0	1	1	0	1	0
5	2	5	45	68993	4637	7.717188303591683507	1	1	2771.3405829854309559	0	375	NaN	0	0	0	1	2	0
5	2	5	46	16351	2812	7.7172346055740490556	0	1	1558.8054300169460475	0	NaN	NaN	0	1	1	0	1	0
5	2	5	47	65322	1303	7.7172809041803702712	0	1	2106.6570380353368819	0	NaN	NaN	0	1	1	0	1	0
5	2	5	48	30247	7545	7.7173271854408085346	0	1	1258.1730589736253023	0	NaN	NaN	0	1	1	0	1	0
5	2	5	49	4253	2298	7.7173734805546700954	0	1	1190.1474269689060748	0	NaN	NaN	0	1	1	0	1	0
5	2	5	50	11703	5401	7.7174660739256069064	0	1	1601.6612480161711574	0	NaN	NaN	0	1	1	0	1	0
5	2	5	51	3719	9776	7.7175123661290854216	0	1	1216.110625013243407	0	NaN	NaN	0	1	1	0	1	0
5	2	5	52	45676	1056	7.7175586615921929479	0	1	1802.2099249646998942	0	NaN	NaN	0	1	1	0	1	0
5	2	5	53	25939	5995	7.717604956473223865	1	1	943.43926600413396955	0	107	NaN	1	1	0	1	2	0
5	2	5	54	17966	5431	7.7176512473961338401	0	1	1245.0952809886075556	0	NaN	NaN	0	1	1	0	1	0
5	2	5	55	63757	8593	7.7176975468173623085	0	1	1427.6192000252194703	0	NaN	NaN	0	1	1	0	1	0
5	2	5	56	24044	9719	7.7177438442595303059	0	0	1829.7188589931465685	0	NaN	NaN	0	0	0	1	2	0
5	2	5	57	34923	6148	7.7177901341347023845	1	0	926.01056897547096014	0	449	NaN	0	1	1	0	1	0
5	2	5	58	44581	2687	7.7178364302963018417	0	1	2504.0390839567407966	0	NaN	NaN	0	1	1	0	1	0
5	2	5	59	59762	4187	7.7178827236639335752	1	1	2027.6765510207042098	0	203	NaN	1	1	0	1	2	0
5	2	5	60	33640	3765	7.7179289173800498247	0	1	1731.5408540307544172	0	NaN	NaN	0	1	1	0	1	0
5	2	5	61	39614	4431	7.7179752070223912597	0	1	2490.2996059972792864	0	NaN	NaN	0	1	1	0	1	0
5	2	5	62	3416	1069	7.7180215067928656936	1	1	936.57972599612548947	0	130	407	1	1	0	1	2	0
5	2	5	63	45436	7531	7.7180677955038845539	0	1	1885.2571420138701797	0	NaN	NaN	0	1	1	0	1	0
5	2	6	1	25939	5995	7.7195055254269391298	1	1	724.10961904097348452	0	10	118	1	1	0	1	2	0
5	2	6	2	10897	8152	7.7195518240332603455	0	1	1229.2628450086340308	0	NaN	NaN	0	1	1	0	1	0
5	2	6	3	31368	3854	7.7195981115801259875	0	1	1302.1691059693694115	0	NaN	NaN	0	1	1	0	1	0
5	2	6	4	39121	2311	7.7196444113506004214	0	1	1841.0649729776196182	0	NaN	NaN	0	1	1	0	1	0
5	2	6	5	45602	4893	7.7196906972676515579	1	1	2188.289756013546139	0	142	NaN	1	1	0	1	2	0
5	2	6	6	23165	1470	7.7197369961068034172	0	0	2463.6827000067569315	0	NaN	NaN	0	0	0	1	2	0
5	2	6	7	49438	2830	7.719783282489515841	1	1	843.62081601284444332	0	36	439	1	1	0	1	2	0
5	2	6	8	38818	511	7.7198295912239700556	1	1	1384.3299949658103287	0	550	NaN	0	0	0	1	2	0
5	2	6	9	16347	1066	7.7198758685262873769	0	1	1062.2417810373008251	0	NaN	NaN	0	1	1	0	1	0
5	2	6	10	69870	8504	7.7199221776099875569	0	1	1803.0856740078888834	0	NaN	NaN	0	1	1	0	1	0
5	2	6	11	39121	2311	7.71996846585534513	1	1	926.10818601679056883	0	6	NaN	1	1	0	1	2	0
5	2	6	12	4772	9040	7.7200610445579513907	0	1	2085.542362998239696	0	NaN	NaN	0	1	1	0	1	0
5	2	6	13	15699	8422	7.7201073401374742389	0	1	1783.2746030180715024	0	NaN	NaN	0	1	1	0	1	0
5	2	6	14	42975	4838	7.720153638394549489	1	1	806.32490501739084721	0	36	NaN	1	1	0	1	2	0
5	2	6	15	12988	7165	7.7201999222161248326	0	1	2411.4283079979941249	0	NaN	NaN	0	1	1	0	1	0
5	2	6	16	35028	4665	7.7202462204732000828	1	1	1167.4940490047447383	0	338	NaN	0	0	0	1	2	0
5	2	6	17	22516	276	7.7202925126766785979	1	1	802.50289000105112791	0	171	NaN	1	1	0	1	2	0
5	2	6	18	47811	6487	7.7203388067428022623	0	1	1237.5317490077577531	0	NaN	NaN	0	1	1	0	1	0
5	2	6	19	47521	8383	7.7203851096564903855	0	1	1534.6913510002195835	0	NaN	NaN	0	1	1	0	1	0
5	2	6	20	35649	4095	7.7204313009278848767	1	1	2176.2650029850192368	0	533	NaN	0	0	0	1	2	0
5	2	6	21	12044	7176	7.7204775968566536903	0	1	1271.5230339672416449	0	NaN	NaN	0	1	1	0	1	0
5	2	6	22	19951	5279	7.7205701887141913176	0	1	2002.2587159764952958	0	NaN	NaN	0	1	1	0	1	0
5	2	6	23	3570	3861	7.7206164818489924073	1	1	843.90209597768262029	0	44	NaN	1	1	0	1	2	0
5	2	6	24	60215	7300	7.7206627761479467154	1	1	1903.3951890305615962	0	950	NaN	0	0	0	1	2	0
5	2	6	25	34038	9879	7.7207090707961469889	0	1	1712.436784990131855	0	NaN	NaN	0	1	1	0	1	0
5	2	6	26	61649	5288	7.7207553659100085497	0	0	2407.2514810250140727	0	NaN	NaN	0	0	0	1	2	0
5	2	6	27	41510	8201	7.7208016592776402831	0	1	1082.6717829913832247	0	NaN	NaN	0	1	1	0	1	0
5	2	6	28	41992	9458	7.7208479513647034764	0	1	1017.5907540251500905	0	NaN	NaN	0	1	1	0	1	0
5	2	6	29	51078	700	7.7208942451979964972	0	1	2328.3255919814109802	0	NaN	NaN	0	1	1	0	1	0
5	2	6	30	30247	7545	7.7209405413595959544	1	1	812.71655199816450477	0	44	NaN	1	1	0	1	2	0
5	2	6	31	56550	9753	7.7209868361242115498	0	1	1867.1728849876672029	0	NaN	NaN	0	1	1	0	1	0
5	2	6	32	1053	2981	7.7210331212263554335	0	1	1008.0817679991014302	0	NaN	NaN	0	1	1	0	1	0
5	2	6	33	39121	2311	7.7210794161073863506	1	1	848.34431199124082923	0	21	28	1	1	0	1	2	0
5	2	6	34	47027	1102	7.7211720116902142763	1	1	1213.9426110079512	0	186	NaN	1	1	0	1	2	0
5	2	6	35	26973	2186	7.7212183047086000443	1	0	2226.3738120091147721	0	475	638	0	1	1	0	1	0
5	2	6	36	11214	5676	7.7212645936524495482	0	1	2590.1716069784015417	0	NaN	NaN	0	1	1	0	1	0
5	2	6	37	71105	2841	7.7213108877185732126	0	1	1357.9127360135316849	0	NaN	NaN	0	1	1	0	1	0
5	2	6	38	38683	9452	7.7213571881875395775	0	1	2380.0942709785886109	0	NaN	NaN	0	1	1	0	1	0
5	2	6	39	37698	6883	7.721403483534231782	0	1	1464.0125969890505075	0	NaN	NaN	0	1	1	0	1	0
5	2	6	40	32014	5686	7.721449778531678021	0	1	1374.1777410032227635	0	NaN	NaN	0	1	1	0	1	0
5	2	6	41	34490	1448	7.7214960712008178234	0	1	1586.9262180058285594	0	NaN	NaN	0	1	1	0	1	0
5	2	6	42	54173	2353	7.721542367828078568	0	1	1022.705999028403312	0	NaN	NaN	0	1	1	0	1	0
5	2	6	43	43097	7726	7.7215886595658957958	0	1	1402.3030570242553949	0	NaN	NaN	0	1	1	0	1	0
5	2	6	44	24041	6890	7.7216812479309737682	0	1	2794.4139440078288317	0	NaN	NaN	0	1	1	0	1	0
5	2	6	45	26163	6928	7.7217274453723803163	0	1	1472.4726510467007756	0	NaN	NaN	0	1	1	0	1	0
