SUBJECT	SESSION	RUN	TRIAL	73KID	10KID	TIME	ISOLD	ISCORRECT	RT	CHANGEMIND	MEMORYRECENT	MEMORYFIRST	ISOLDCURRENT	ISCORRECTCURRENT	TOTAL1	TOTAL2	BUTTON	MISSINGDATA
7	1	1	1	46003	626	0.59601599001325666904	0	1	1653.6348990002807113	0	NaN	NaN	0	1	1	0	1	0
7	1	1	2	16507	5013	0.59606228512711822987	0	1	620.89101599940477172	0	NaN	NaN	0	1	1	0	1	0
7	1	1	3	9387	4850	0.59610857977531850338	0	1	551.29557800046313787	0	NaN	NaN	0	1	1	0	1	0
7	1	1	4	19212	8823	0.5961548839695751667	0	1	624.68524599989905255	0	NaN	NaN	0	1	1	0	1	0
7	1	1	5	19178	9538	0.59620116662699729204	0	0	828.54461099941545399	0	NaN	NaN	0	0	0	1	2	0
7	1	1	6	71795	6061	0.59624747186899185181	0	1	547.16700199969636742	0	NaN	NaN	0	1	1	0	1	0
7	1	1	7	24408	4421	0.59629374882206320763	0	1	534.39102099946467206	0	NaN	NaN	0	1	1	0	1	0
7	1	1	8	47969	3858	0.59634005348198115826	0	1	659.64203200019255746	0	NaN	NaN	0	1	1	0	1	0
7	1	1	9	851	8124	0.59638634591829031706	0	1	516.49322100001882063	0	NaN	NaN	0	1	1	0	1	0
7	1	1	10	38353	4843	0.5964326484827324748	0	1	487.68384999948466429	0	NaN	NaN	0	1	1	0	1	0
7	1	1	11	64761	7941	0.59647893637884408236	0	1	644.17446800052857725	0	NaN	NaN	0	1	1	0	1	0
7	1	1	12	55696	4523	0.59652523230761289597	0	1	642.25799500036373502	0	NaN	NaN	0	1	1	0	1	0
7	1	1	13	23188	1070	0.59661781275644898415	0	1	602.54272799920727266	0	NaN	NaN	0	1	1	0	1	0
7	1	1	14	17279	9588	0.59666410414502024651	0	1	522.75256299981265329	0	NaN	NaN	0	1	1	0	1	0
7	1	1	15	28972	4623	0.59671039565000683069	0	1	426.45788600020750891	0	NaN	NaN	0	1	1	0	1	0
7	1	1	16	31984	3185	0.59675669553689658642	0	1	436.23690499953227118	0	NaN	NaN	0	1	1	0	1	0
7	1	1	17	71455	4586	0.59680299041792750359	0	1	686.70184600068751024	0	NaN	NaN	0	1	1	0	1	0
7	1	1	18	9826	1009	0.59684928366914391518	0	1	502.77139199988596374	0	NaN	NaN	0	1	1	0	1	0
7	1	1	19	32184	8634	0.59689557179808616638	0	1	463.11888000036560697	0	NaN	NaN	0	1	1	0	1	0
7	1	1	20	9091	9648	0.59694186749402433634	0	1	949.95970600029977504	0	NaN	NaN	0	1	1	0	1	0
7	1	1	21	70197	9425	0.59698816773016005754	0	1	469.8340719996849657	0	NaN	NaN	0	1	1	0	1	0
7	1	1	22	29271	1344	0.59703436354175209999	0	1	692.28994100012641866	0	NaN	NaN	0	1	1	0	1	0
7	1	1	23	68173	7441	0.59712695167399942875	0	1	485.05691700029274216	0	NaN	NaN	0	1	1	0	1	0
7	1	1	24	44722	3902	0.59717324539087712765	0	1	809.04070799988403451	0	NaN	NaN	0	1	1	0	1	0
7	1	1	25	48216	8795	0.59721953363623470068	0	1	792.54528700039372779	0	NaN	NaN	0	1	1	0	1	0
7	1	1	26	13227	1840	0.5972658360842615366	0	1	902.02856899941252777	0	NaN	NaN	0	1	1	0	1	0
7	1	1	27	52668	1356	0.59731212176848202944	0	1	1320.8914830001958762	0	NaN	NaN	0	1	1	0	1	0
7	1	1	28	59076	5506	0.59735841944348067045	0	1	984.14312399927439401	0	NaN	NaN	0	1	1	0	1	0
7	1	1	29	48618	666	0.59740471059922128916	0	1	1106.0862960002850741	0	NaN	NaN	0	1	1	0	1	0
7	1	1	30	40332	8240	0.59745100920554250479	0	1	776.27967899934446905	0	NaN	NaN	0	1	1	0	1	0
7	1	1	31	64495	7232	0.59749729826580733061	0	1	903.25643699998181546	0	NaN	NaN	0	1	1	0	1	0
7	1	1	32	24568	5691	0.59754358965437859297	0	1	971.97056500044709537	0	NaN	NaN	0	1	1	0	1	0
7	1	1	33	50870	6661	0.59758988535031676292	0	1	1007.5295880005796789	0	NaN	NaN	0	1	1	0	1	0
7	1	1	34	36703	2400	0.59763618686702102423	0	1	1432.7490200003012433	0	NaN	NaN	0	1	1	0	1	0
7	1	1	35	23755	2252	0.59772876475472003222	0	1	509.26681100008863723	0	NaN	NaN	0	1	1	0	1	0
7	1	1	36	44981	612	0.59777506091631948948	0	1	928.13737100004800595	0	NaN	NaN	0	1	1	0	1	0
7	1	1	37	49113	1609	0.59782136557623744011	0	1	2022.2494260005987599	0	NaN	NaN	0	1	1	0	1	0
7	1	1	38	10891	3579	0.59786765743046998978	0	1	1083.1968519996735267	0	NaN	NaN	0	1	1	0	1	0
7	1	1	39	14366	1703	0.59791395580396056175	0	1	1057.446576000074856	0	NaN	NaN	0	1	1	0	1	0
7	1	1	40	53264	9976	0.59796024265233427286	0	1	735.57669399997394066	0	NaN	NaN	0	1	1	0	1	0
7	1	1	41	17880	5770	0.59800654009450227022	0	1	588.52753300016047433	0	NaN	NaN	0	1	1	0	1	0
7	1	1	42	35151	8748	0.59805282531306147575	0	1	672.29722399952152045	0	NaN	NaN	0	1	1	0	1	0
7	1	1	43	26533	9202	0.59809912811033427715	0	1	1165.1321680001274217	0	NaN	NaN	0	1	1	0	1	0
7	1	1	44	820	3123	0.59814541530795395374	0	1	665.81439699984912295	0	NaN	NaN	0	1	1	0	1	0
7	1	1	45	32626	436	0.59819171752315014601	0	1	651.23179700003674952	0	NaN	NaN	0	1	1	0	1	0
7	1	1	46	71455	4586	0.59828430518973618746	1	1	950.8095040000625886	0	28	NaN	1	1	0	1	2	0
7	1	1	47	54304	1499	0.59833050193265080452	0	1	756.60222799979237607	0	NaN	NaN	0	1	1	0	1	0
7	1	1	48	15512	2872	0.59837679099291563034	0	1	802.84513299920945428	0	NaN	NaN	0	1	1	0	1	0
7	1	1	49	67369	9173	0.5984230914618819952	0	1	872.47257199942396255	0	NaN	NaN	0	1	1	0	1	0
7	1	1	50	71952	2665	0.59846937539987266064	0	1	1016.765843000030145	0	NaN	NaN	0	1	1	0	1	0
7	1	1	51	33049	1045	0.59851566958241164684	0	1	531.32254299998749048	0	NaN	NaN	0	1	1	0	1	0
7	1	1	52	38801	1974	0.59856197086628526449	0	1	1064.5192079991829814	0	NaN	NaN	0	1	1	0	1	0
7	1	1	53	40814	2268	0.59860826563090085983	0	1	614.46923699986655265	0	NaN	NaN	0	1	1	0	1	0
7	1	1	54	52561	7771	0.59865455527324229479	0	1	650.55253399987122975	0	NaN	NaN	0	1	1	0	1	0
7	1	1	55	7026	6336	0.59874714573379606009	0	1	1032.5462660002813209	0	NaN	NaN	0	1	1	0	1	0
7	1	1	56	53053	727	0.59879344585351645947	0	1	1042.7264309992096969	0	NaN	NaN	0	1	1	0	1	0
7	1	1	57	4931	40	0.59883973177056759596	0	1	692.17835299969010521	0	NaN	NaN	0	1	1	0	1	0
7	1	1	58	63538	6000	0.59888602141290903091	0	1	1404.8261299994919682	0	NaN	NaN	0	1	1	0	1	0
7	1	1	59	71724	7046	0.59893232490867376328	0	1	831.32287199987331405	0	NaN	NaN	0	1	1	0	1	0
7	1	1	60	52712	1607	0.59897861280478537083	0	1	626.76070099951175507	0	NaN	NaN	0	1	1	0	1	0
7	1	1	61	58286	2132	0.59902490535750985146	0	1	867.52739500025199959	0	NaN	NaN	0	1	1	0	1	0
7	1	1	62	33362	5352	0.5990712018683552742	0	1	948.03813799990166444	0	NaN	NaN	0	1	1	0	1	0
7	1	1	63	14724	2514	0.59911749383900314569	0	1	2016.4298780000535771	0	NaN	NaN	0	1	1	0	1	0
7	1	2	1	55584	5730	0.60074424627237021923	0	1	722.63457299959554803	0	NaN	NaN	0	1	1	0	1	0
7	1	2	2	7340	4135	0.60079055384267121553	0	1	858.67751100067835068	0	NaN	NaN	0	1	1	0	1	0
7	1	2	3	71887	5169	0.60083683824632316828	0	1	625.63546699948346941	0	NaN	NaN	0	1	1	0	1	0
7	1	2	4	62137	5821	0.60088302812073379755	0	1	719.26449799957481446	0	NaN	NaN	0	1	1	0	1	0
7	1	2	5	65272	8842	0.60092932160478085279	0	1	651.25765900029364275	0	NaN	NaN	0	1	1	0	1	0
7	1	2	6	7340	4135	0.60097562347073107958	1	1	649.01077499962411821	0	3	NaN	1	1	0	1	2	0
7	1	2	7	4862	4990	0.60102190834004431963	0	1	649.7402499999225256	0	NaN	NaN	0	1	1	0	1	0
7	1	2	8	29052	9955	0.60106820508372038603	0	1	1414.6938149997367873	0	NaN	NaN	0	1	1	0	1	0
7	1	2	9	37875	7331	0.60111450182739645243	0	1	705.02529599980334751	0	NaN	NaN	0	1	1	0	1	0
7	1	2	10	11884	3470	0.60116079449653625488	0	1	1056.6121130004830775	0	NaN	NaN	0	1	1	0	1	0
7	1	2	11	4198	9913	0.60120708215981721878	0	1	823.13478899959591217	0	NaN	NaN	0	1	1	0	1	0
7	1	2	12	61138	3207	0.60129967902321368456	0	1	456.50703899991640355	0	NaN	NaN	0	1	1	0	1	0
7	1	2	13	47757	5799	0.60134597017895430326	0	1	727.85857400049280841	0	NaN	NaN	0	1	1	0	1	0
7	1	2	14	4634	4068	0.60139226668979972601	0	1	515.49566900030185934	0	NaN	NaN	0	1	1	0	1	0
7	1	2	15	1766	2204	0.60143855947535485029	0	1	723.22786899985658238	0	NaN	NaN	0	1	1	0	1	0
7	1	2	16	27329	7081	0.60148485354147851467	0	1	510.92273799986287486	0	NaN	NaN	0	1	1	0	1	0
7	1	2	17	37067	3632	0.60153114772401750088	0	1	817.18107899996539345	0	NaN	NaN	0	1	1	0	1	0
7	1	2	18	68733	3444	0.60157744388561695814	0	1	1207.3789000005490379	0	NaN	NaN	0	1	1	0	1	0
7	1	2	19	70389	2840	0.60162373667117208242	0	1	980.80399199989187764	0	NaN	NaN	0	1	1	0	1	0
7	1	2	20	64910	1538	0.60167003085371106863	0	1	1159.9453079998056637	0	NaN	NaN	0	1	1	0	1	0
7	1	2	21	62613	8951	0.6017626194516196847	0	1	1229.3751400002292939	0	NaN	NaN	0	1	1	0	1	0
7	1	2	22	39224	8009	0.60180891328491270542	0	1	1291.8338760000551702	0	NaN	NaN	0	1	1	0	1	0
7	1	2	23	60490	5772	0.60185520781669765711	0	1	1130.7017159997485578	0	NaN	NaN	0	1	1	0	1	0
7	1	2	24	183	5200	0.60190150258131325245	0	1	1102.5045639999007108	0	NaN	NaN	0	1	1	0	1	0
7	1	2	25	50306	7984	0.6019477952504530549	0	1	1263.1883559997731936	0	NaN	NaN	0	1	1	0	1	0
7	1	2	26	28196	9865	0.60199408070184290409	0	0	890.91126899984374177	0	NaN	NaN	0	0	0	1	2	0
7	1	2	27	12911	7367	0.60204037721268832684	0	1	729.96079599943186622	0	NaN	NaN	0	1	1	0	1	0
7	1	2	28	32626	436	0.60208660713396966457	1	1	779.97884299929864937	0	45	NaN	1	1	0	1	2	0
7	1	2	29	3970	3014	0.60213286802172660828	0	1	1250.9150539999609464	0	NaN	NaN	0	1	1	0	1	0
7	1	2	30	5331	3569	0.60217916953843086958	0	1	866.49390799993852852	0	NaN	NaN	0	1	1	0	1	0
7	1	2	31	64567	6871	0.60227175371255725622	0	1	602.73647000030905474	0	NaN	NaN	0	1	1	0	1	0
7	1	2	32	65421	4263	0.6023180508054792881	0	1	778.58656999978848035	0	NaN	NaN	0	1	1	0	1	0
7	1	2	33	9747	3694	0.60236434522084891796	0	1	1548.2814480001252377	0	NaN	NaN	0	1	1	0	1	0
7	1	2	34	40291	5322	0.60241064406000077724	0	1	1046.710261000043829	0	NaN	NaN	0	1	1	0	1	0
7	1	2	35	18731	4061	0.6024569289293140173	0	1	1442.1804610001345281	0	NaN	NaN	0	1	1	0	1	0
7	1	2	36	68259	7985	0.60250322776846587658	0	1	1604.1023630004929146	0	NaN	NaN	0	1	1	0	1	0
7	1	2	37	69080	6041	0.60254952427931129932	0	1	1003.3767719996831147	0	NaN	NaN	0	1	1	0	1	0
7	1	2	38	63169	6142	0.60259581520222127438	0	1	1310.3746679998948821	0	NaN	NaN	0	1	1	0	1	0
7	1	2	39	65492	6843	0.60264211241155862808	0	1	917.57398200024908874	0	NaN	NaN	0	1	1	0	1	0
7	1	2	40	59209	7442	0.60268840088974684477	0	1	780.21837799951754278	0	NaN	NaN	0	1	1	0	1	0
7	1	2	41	28108	1108	0.60278098576236516237	0	1	752.27996600006008521	0	NaN	NaN	0	1	1	0	1	0
7	1	2	42	51882	9936	0.60282728879246860743	0	1	1019.1094249994421261	0	NaN	NaN	0	1	1	0	1	0
7	1	2	43	27881	2757	0.60287357878405600786	0	1	969.22254200035240501	0	NaN	NaN	0	1	1	0	1	0
7	1	2	44	11578	9658	0.60291987587697803974	0	1	935.90614999993704259	0	NaN	NaN	0	1	1	0	1	0
7	1	2	45	71887	5169	0.60296616936102509499	1	1	1479.7683839997262112	1	41	NaN	1	1	1	1	2	0
7	1	2	46	65479	3376	0.6030124657554551959	0	1	1262.9996229998141644	0	NaN	NaN	0	1	1	0	1	0
7	1	2	47	25540	7287	0.60305875691119581461	0	1	1903.3841979999124305	0	NaN	NaN	0	1	1	0	1	0
7	1	2	48	59986	5363	0.60310504620429128408	0	1	2352.0415140001205145	0	NaN	NaN	0	1	1	0	1	0
7	1	2	49	61501	5834	0.60315134481061249971	0	1	1262.7621090005050064	0	NaN	NaN	0	1	1	0	1	0
7	1	2	50	59825	6448	0.60319764132145792246	0	1	924.76909400011209073	0	NaN	NaN	0	1	1	0	1	0
7	1	2	51	61449	4186	0.60324393538758158684	0	1	1028.2309300000633812	0	NaN	NaN	0	1	1	0	1	0
7	1	2	52	17511	9715	0.60329022957012057304	0	1	664.61247400002321228	0	NaN	NaN	0	1	1	0	1	0
7	1	2	53	47684	1430	0.60338281840085983276	0	1	1214.1463830002976465	0	NaN	NaN	0	1	1	0	1	0
7	1	2	54	1208	9621	0.60342901549302041531	0	1	1201.8636479997439892	0	NaN	NaN	0	1	1	0	1	0
7	1	2	55	63422	7112	0.60347531107254326344	0	1	1124.3247649999830173	0	NaN	NaN	0	1	1	0	1	0
7	1	2	56	65074	9845	0.60352160350885242224	0	1	1083.6382860006779083	0	NaN	NaN	0	1	1	0	1	0
7	1	2	57	20077	7473	0.603567890590056777	0	1	1292.9897739995794836	0	NaN	NaN	0	1	1	0	1	0
7	1	2	58	6432	60	0.60361418838147073984	0	1	1113.6742239996237913	0	NaN	NaN	0	1	1	0	1	0
7	1	2	59	27881	2757	0.60366047767456620932	1	1	1129.9058570002671331	0	15	NaN	1	1	0	1	2	0
7	1	2	60	34063	2704	0.60370678093750029802	0	1	1024.2698579995703767	0	NaN	NaN	0	1	1	0	1	0
7	1	2	61	32184	8634	0.60375307477079331875	1	1	2212.3478580006121774	1	104	NaN	1	1	1	1	2	0
7	1	2	62	30756	4900	0.6037993669742718339	0	1	640.74522000009892508	0	NaN	NaN	0	1	1	0	1	0
7	1	3	1	66892	7336	0.60547094617504626513	0	1	1762.2085190005236655	0	NaN	NaN	0	1	1	0	1	0
7	1	3	2	70336	970	0.60551724256947636604	0	0	2172.1818559999519493	0	NaN	NaN	0	0	0	1	2	0
7	1	3	3	31051	4229	0.60556353686843067408	0	1	806.40758600020490121	0	NaN	NaN	0	1	1	0	1	0
7	1	3	4	71692	3770	0.60560983931645750999	0	1	1226.884104000419029	0	NaN	NaN	0	1	1	0	1	0
7	1	3	5	68291	3284	0.60565612709615379572	0	1	1072.201099000267277	0	NaN	NaN	0	1	1	0	1	0
7	1	3	6	69203	6316	0.60570243652909994125	0	1	861.56229299922415521	0	NaN	NaN	0	1	1	0	1	0
7	1	3	7	56198	1266	0.6057487118523567915	0	1	619.08299300012004096	0	NaN	NaN	0	1	1	0	1	0
7	1	3	8	36577	479	0.60579502582550048828	0	1	1026.0222249999060296	0	NaN	NaN	0	1	1	0	1	0
7	1	3	9	49721	6277	0.60584129905328154564	0	1	952.07651800046733115	0	NaN	NaN	0	1	1	0	1	0
7	1	3	10	11934	9754	0.60588762769475579262	0	1	837.32003500063001411	0	NaN	NaN	0	1	1	0	1	0
7	1	3	11	46256	7300	0.60598021780606359243	0	1	882.19418500011670403	0	NaN	NaN	0	1	1	0	1	0
7	1	3	12	3440	1104	0.60602648148778825998	0	1	861.86130299938668031	0	NaN	NaN	0	1	1	0	1	0
7	1	3	13	15124	7313	0.60607282118871808052	0	1	1052.2542480002812226	0	NaN	NaN	0	1	1	0	1	0
7	1	3	14	23778	3250	0.60611906647682189941	0	1	1022.7462120001291623	0	NaN	NaN	0	1	1	0	1	0
7	1	3	15	46540	6726	0.60616540757473558187	0	1	964.55517100002907682	0	NaN	NaN	0	1	1	0	1	0
7	1	3	16	3975	8054	0.60621165623888373375	0	1	842.96916500079532852	0	NaN	NaN	0	1	1	0	1	0
7	1	3	17	65407	7613	0.60625800502020865679	0	1	1206.2811580008201418	0	NaN	NaN	0	1	1	0	1	0
7	1	3	18	54060	6236	0.6063042395981028676	0	1	808.77835699993738672	0	NaN	NaN	0	1	1	0	1	0
7	1	3	19	26081	2259	0.6063506054924800992	0	1	971.18643400062865112	0	NaN	NaN	0	1	1	0	1	0
7	1	3	20	47865	3968	0.6063968287780880928	0	1	733.59934000018256484	0	NaN	NaN	0	1	1	0	1	0
7	1	3	21	63893	2980	0.60644320410210639238	0	1	1559.8874209999848972	0	NaN	NaN	0	1	1	0	1	0
7	1	3	22	932	9718	0.60648942564148455858	0	1	809.54422800004977034	0	NaN	NaN	0	1	1	0	1	0
7	1	3	23	19629	1550	0.60653572459705173969	0	1	845.46832599971821764	0	NaN	NaN	0	1	1	0	1	0
7	1	3	24	63893	2980	0.60658200772013515234	1	1	702.71158400009881007	0	2	NaN	1	1	0	1	2	0
7	1	3	25	65750	6274	0.60667459235992282629	0	1	644.47543000005680369	0	NaN	NaN	0	1	1	0	1	0
7	1	3	26	72122	6666	0.60672089585568755865	0	1	954.46214799994777422	0	NaN	NaN	0	1	1	0	1	0
7	1	3	27	39559	3580	0.60676718712784349918	0	1	789.11311700085207121	0	NaN	NaN	0	1	1	0	1	0
7	1	3	28	57047	791	0.60681348596699535847	0	1	801.08435300007840851	0	NaN	NaN	0	1	1	0	1	0
7	1	3	29	52561	7771	0.60685977467801421881	1	0	1609.1011079997770139	0	99	NaN	1	0	1	0	1	0
7	1	3	30	68259	7985	0.60690607677679508924	1	1	847.46439399987139041	0	55	NaN	1	1	0	1	2	0
7	1	3	31	21272	5651	0.6069523555925115943	0	1	1669.2005750001044362	0	NaN	NaN	0	1	1	0	1	0
7	1	3	32	34894	4786	0.60699866339564323425	0	1	772.44064299975434551	0	NaN	NaN	0	1	1	0	1	0
7	1	3	33	68666	5910	0.60704484872985631227	0	1	702.45963900015340187	0	NaN	NaN	0	1	1	0	1	0
7	1	3	34	57793	6588	0.60709114850033074617	0	1	1716.1414169995623524	0	NaN	NaN	0	1	1	0	1	0
7	1	3	35	36904	5925	0.60713744489476084709	0	1	930.82414499986043666	0	NaN	NaN	0	1	1	0	1	0
7	1	3	36	29896	5699	0.60723003069870173931	0	1	1062.3614779997296864	0	NaN	NaN	0	1	1	0	1	0
7	1	3	37	4879	3719	0.60727632476482540369	0	1	885.22611000007600524	0	NaN	NaN	0	1	1	0	1	0
7	1	3	38	30210	5440	0.60732261999510228634	0	1	833.1503839999641059	0	NaN	NaN	0	1	1	0	1	0
7	1	3	39	50604	9470	0.60736890812404453754	0	1	1021.2799999999333522	0	NaN	NaN	0	1	1	0	1	0
7	1	3	40	38473	1330	0.60741520731244236231	0	1	921.34543300016957801	0	NaN	NaN	0	1	1	0	1	0
7	1	3	41	44290	8935	0.60746150114573538303	0	1	702.26809100040554767	0	NaN	NaN	0	1	1	0	1	0
7	1	3	42	7660	80	0.60750779614318162203	0	1	951.88430400048673619	0	NaN	NaN	0	1	1	0	1	0
7	1	3	43	55534	2159	0.60755408590193837881	0	1	1040.1367989998107078	0	NaN	NaN	0	1	1	0	1	0
7	1	3	44	15691	1866	0.60760038474109023809	0	1	1036.0515990005296771	0	NaN	NaN	0	1	1	0	1	0
7	1	3	45	44074	5965	0.60769296775106340647	0	1	2304.1211190002286457	0	NaN	NaN	0	1	1	0	1	0
7	1	3	46	63961	7512	0.60773926565889269114	0	1	1127.4249580001196591	0	NaN	NaN	0	1	1	0	1	0
7	1	3	47	23294	4025	0.6077855557668954134	0	1	1085.4493610004283255	0	NaN	NaN	0	1	1	0	1	0
7	1	3	48	23294	4025	0.6078318512300029397	1	1	651.38935799950559158	0	0	NaN	1	1	0	1	2	0
7	1	3	49	30374	403	0.60787814867217093706	0	1	1203.726030999860086	0	NaN	NaN	0	1	1	0	1	0
7	1	3	50	16936	1665	0.60792444436810910702	0	1	756.0312979994705529	0	NaN	NaN	0	1	1	0	1	0
7	1	3	51	48724	9667	0.60797073796857148409	0	1	2113.475120999282808	0	NaN	NaN	0	1	1	0	1	0
7	1	3	52	25960	340	0.60801703028846532106	0	1	965.17012500044074841	0	NaN	NaN	0	1	1	0	1	0
7	1	3	53	57662	6692	0.608063317253254354	0	1	1016.7730180000944529	0	NaN	NaN	0	1	1	0	1	0
7	1	3	54	50969	3824	0.60815590678248554468	0	1	1003.5855079995599226	0	NaN	NaN	0	1	1	0	1	0
7	1	3	55	65510	1160	0.60820220899768173695	0	1	1125.6838239996795892	0	NaN	NaN	0	1	1	0	1	0
7	1	3	56	71724	7046	0.60824849829077720642	1	1	815.02908399943407858	0	121	NaN	1	1	0	1	2	0
7	1	3	57	538	7852	0.60829479736275970936	0	1	1002.536769000471395	0	NaN	NaN	0	1	1	0	1	0
7	1	3	58	72076	5291	0.60834108560811728239	0	1	2326.2050909997924464	0	NaN	NaN	0	1	1	0	1	0
7	1	3	59	20770	3595	0.60838728584349155426	0	1	1263.4836150000410271	0	NaN	NaN	0	1	1	0	1	0
7	1	3	60	6638	2325	0.60843358235433697701	0	1	866.22481399990647333	0	NaN	NaN	0	1	1	0	1	0
7	1	3	61	71777	4285	0.60847987036686390638	0	1	1089.3591069998365128	0	NaN	NaN	0	1	1	0	1	0
7	1	3	62	45280	8561	0.6085261624539270997	0	1	883.41788599973369855	0	NaN	NaN	0	1	1	0	1	0
7	1	3	63	3970	3014	0.60857245989609509706	1	0	955.32092999928863719	0	95	NaN	1	0	1	0	1	0
7	1	4	1	30374	403	0.6102403679396957159	1	1	2414.7590880002098856	0	14	NaN	1	1	0	1	2	0
7	1	4	2	44981	612	0.61028666747733950615	1	1	975.34677200019359589	0	153	NaN	1	1	0	1	2	0
7	1	4	3	25558	4687	0.61033295933157205582	0	1	818.97135600047477055	0	NaN	NaN	0	1	1	0	1	0
7	1	4	4	70197	9425	0.61037927190773189068	1	1	1408.1937030005065026	0	170	NaN	1	1	0	1	2	0
7	1	4	5	36189	7750	0.61042555153835564852	0	1	1107.770399999935762	0	NaN	NaN	0	1	1	0	1	0
7	1	4	6	5628	3194	0.61047186737414449453	0	1	657.21458900043217	0	NaN	NaN	0	1	1	0	1	0
7	1	4	7	72070	2628	0.61051814723759889603	0	1	1202.2314050000204588	0	NaN	NaN	0	1	1	0	1	0
7	1	4	8	44534	9722	0.61056445608846843243	0	1	1400.8534309996321099	0	NaN	NaN	0	1	1	0	1	0
7	1	4	9	45280	8561	0.61061073374003171921	1	1	837.93000100013159681	0	9	NaN	1	1	0	1	2	0
7	1	4	10	16890	2670	0.61065702501218765974	0	1	938.39605599987407913	0	NaN	NaN	0	1	1	0	1	0
7	1	4	11	45508	5109	0.61074962420389056206	0	1	1003.4547409995866474	0	NaN	NaN	0	1	1	0	1	0
7	1	4	12	65868	3457	0.6107959159417077899	0	1	901.65139799955795752	0	NaN	NaN	0	1	1	0	1	0
7	1	4	13	55231	9972	0.61084220581687986851	0	0	1953.6857330003840616	0	NaN	NaN	0	0	0	1	2	0
7	1	4	14	65415	899	0.61088850069791078568	0	1	881.68847399992955616	0	NaN	NaN	0	1	1	0	1	0
7	1	4	15	55948	5741	0.61093479336705058813	0	1	984.06922400045004906	0	NaN	NaN	0	1	1	0	1	0
7	1	4	16	27083	3831	0.61098108557052910328	0	1	1602.5397410003279219	0	NaN	NaN	0	1	1	0	1	0
7	1	4	17	38246	3799	0.61102737975306808949	0	1	967.07274200070969528	0	NaN	NaN	0	1	1	0	1	0
7	1	4	18	53157	2517	0.61107367835938930511	0	1	935.11433599996962585	0	NaN	NaN	0	1	1	0	1	0
7	1	4	19	58568	6504	0.61111997382249683142	0	1	1420.4861179996441933	0	NaN	NaN	0	1	1	0	1	0
7	1	4	20	11710	3548	0.61121256486512720585	0	1	1652.8877979999379022	0	NaN	NaN	0	1	1	0	1	0
7	1	4	21	59805	6399	0.61125885625369846821	0	1	1218.8550680002663285	0	NaN	NaN	0	1	1	0	1	0
7	1	4	22	29278	3095	0.61130514706019312143	0	1	951.39552999989973614	0	NaN	NaN	0	1	1	0	1	0
7	1	4	23	18152	9021	0.61135144706349819899	0	1	889.01071500004036352	0	NaN	NaN	0	1	1	0	1	0
7	1	4	24	6810	9121	0.61139773298054933548	0	1	775.70695000031264499	0	NaN	NaN	0	1	1	0	1	0
7	1	4	25	538	7852	0.6114440371748059988	1	0	1363.0954990003374405	0	30	NaN	1	0	1	0	1	0
7	1	4	26	28108	1108	0.6114903261186555028	1	0	955.00404300037189387	0	109	NaN	1	0	1	0	1	0
7	1	4	27	26082	8441	0.61153661774005740881	0	1	1939.3685840004764032	0	NaN	NaN	0	1	1	0	1	0
7	1	4	28	1415	9826	0.61158291436731815338	0	1	1213.9688159995785099	0	NaN	NaN	0	1	1	0	1	0
7	1	4	29	25035	7559	0.61162920854985713959	0	1	2584.5200139992812183	0	NaN	NaN	0	1	1	0	1	0
7	1	4	30	43436	2880	0.61172179540153592825	0	1	1061.9241009999313974	0	NaN	NaN	0	1	1	0	1	0
7	1	4	31	42977	9949	0.61176809738390147686	0	1	1276.8427250002787332	0	NaN	NaN	0	1	1	0	1	0
7	1	4	32	68173	7441	0.61181438283529132605	1	0	2021.1133479997442919	0	196	NaN	1	0	1	0	1	0
7	1	4	33	4637	4751	0.61186068144161254168	0	1	1359.3947440003830707	0	NaN	NaN	0	1	1	0	1	0
7	1	4	34	52674	5679	0.61190697341226041317	0	1	2355.4783760000645998	0	NaN	NaN	0	1	1	0	1	0
7	1	4	35	28196	9865	0.61195327341556549072	1	1	853.08479500054090749	0	133	NaN	1	1	0	1	2	0
7	1	4	36	15646	1645	0.61199956387281417847	0	1	735.62051000044448301	0	NaN	NaN	0	1	1	0	1	0
7	1	4	37	56198	1266	0.61204585374798625708	1	0	1703.5756079994825996	0	92	NaN	1	0	1	0	1	0
7	1	4	38	28172	1549	0.61209215165581554174	0	1	1181.9358080001620692	0	NaN	NaN	0	1	1	0	1	0
7	1	4	39	31051	4229	0.6121384412981569767	1	1	1178.951146000144945	0	98	NaN	1	1	0	1	2	0
7	1	4	40	10983	9562	0.61218464432749897242	0	1	1168.3614960002159933	0	NaN	NaN	0	1	1	0	1	0
7	1	4	41	26509	6187	0.61227722465991973877	0	1	1184.7198519999437849	0	NaN	NaN	0	1	1	0	1	0
7	1	4	42	35151	8748	0.61232352047227323055	1	0	2048.1251849996624514	0	187	NaN	1	0	1	0	1	0
7	1	4	43	29826	8374	0.61236981593538075686	0	1	1051.2687829996139044	0	NaN	NaN	0	1	1	0	1	0
7	1	4	44	42172	559	0.61241611477453261614	0	1	971.61995799979194999	0	NaN	NaN	0	1	1	0	1	0
7	1	4	45	5603	53	0.61246240162290632725	0	1	1017.0107779995305464	0	NaN	NaN	0	1	1	0	1	0
7	1	4	46	43988	8043	0.61250870011281222105	0	1	1086.2607689996366389	0	NaN	NaN	0	1	1	0	1	0
7	1	4	47	57167	8972	0.61255499906837940216	0	1	1056.6181150006741518	0	NaN	NaN	0	1	1	0	1	0
7	1	4	48	25686	5860	0.61260128591675311327	0	1	861.90620600063994061	0	NaN	NaN	0	1	1	0	1	0
7	1	4	49	5953	3756	0.6126475832425057888	0	1	891.5829090001352597	0	NaN	NaN	0	1	1	0	1	0
7	1	4	50	67323	4734	0.61269387730862945318	0	1	1477.2611620001043775	0	NaN	NaN	0	1	1	0	1	0
7	1	4	51	62568	8985	0.61274016951210796833	0	1	770.6435560003228602	0	NaN	NaN	0	1	1	0	1	0
7	1	4	52	10593	5862	0.61278647102881222963	0	1	1041.9597070003874251	0	NaN	NaN	0	1	1	0	1	0
7	1	4	53	28505	1681	0.61287905636709183455	0	1	1078.8168549997863011	0	NaN	NaN	0	1	1	0	1	0
7	1	4	54	3975	8054	0.61292535089887678623	1	1	1523.5270240000318154	0	100	NaN	1	1	0	1	2	0
7	1	4	55	29654	1983	0.61297164042480289936	0	1	904.35713299939379795	0	NaN	NaN	0	1	1	0	1	0
7	1	4	56	46022	7973	0.61301793833263218403	0	1	1101.9935040003474569	0	NaN	NaN	0	1	1	0	1	0
7	1	4	57	6250	2469	0.61306422809138894081	0	1	767.19408999997540377	0	NaN	NaN	0	1	1	0	1	0
7	1	4	58	21602	265	0.61311052541714161634	0	1	802.09533300057955785	0	NaN	NaN	0	1	1	0	1	0
7	1	4	59	62303	860	0.61315682402346283197	0	1	1703.2159639993551536	0	NaN	NaN	0	1	1	0	1	0
7	1	4	60	9140	3951	0.61320310970768332481	0	1	1822.887255999376066	0	NaN	NaN	0	1	1	0	1	0
7	1	4	61	68733	3444	0.61324940924532711506	1	0	1968.6028360001728288	0	167	NaN	1	0	1	0	1	0
7	1	4	62	5302	45	0.6132956966757774353	0	1	842.16178999940893846	0	NaN	NaN	0	1	1	0	1	0
7	1	5	1	15493	187	0.61591772746760398149	0	1	1222.2907630002737278	0	NaN	NaN	0	1	1	0	1	0
7	1	5	2	36350	6960	0.61596402118448168039	0	1	859.67329100003553322	0	NaN	NaN	0	1	1	0	1	0
7	1	5	3	46958	9857	0.61601031129248440266	0	1	1038.6557100000572973	0	NaN	NaN	0	1	1	0	1	0
7	1	5	4	9235	9133	0.61605660710483789444	0	1	1222.8872369996679481	0	NaN	NaN	0	1	1	0	1	0
7	1	5	5	30455	8620	0.61610289651434868574	0	1	757.02929099952598335	0	NaN	NaN	0	1	1	0	1	0
7	1	5	6	25288	323	0.61614918895065784454	0	1	1002.4331710001206375	0	NaN	NaN	0	1	1	0	1	0
7	1	5	7	53162	7974	0.61619549314491450787	0	1	820.82402800006093457	0	NaN	NaN	0	1	1	0	1	0
7	1	5	8	65241	3060	0.61624178767669945955	0	1	971.87739699984376784	0	NaN	NaN	0	1	1	0	1	0
7	1	5	9	70275	3271	0.61628808069508522749	0	1	1041.3452940001661773	0	NaN	NaN	0	1	1	0	1	0
7	1	5	10	64397	5081	0.61633436940610408783	0	1	1411.1514280002666055	0	NaN	NaN	0	1	1	0	1	0
7	1	5	11	61916	4741	0.61642695311456918716	0	1	1177.1747479997429764	0	NaN	NaN	0	1	1	0	1	0
7	1	5	12	26999	1085	0.6164732504403218627	0	1	757.48340799964353209	0	NaN	NaN	0	1	1	0	1	0
7	1	5	13	19944	6570	0.61651962925679981709	0	1	1054.0439319993311074	0	NaN	NaN	0	1	1	0	1	0
7	1	5	14	67323	4734	0.61656584916636347771	1	1	1613.112869999895338	0	25	NaN	1	1	0	1	2	0
7	1	5	15	21602	265	0.61661222588736563921	1	1	1041.7585340001096483	0	18	NaN	1	1	0	1	2	0
7	1	5	16	63893	2980	0.61665842973161488771	1	1	743.38371599969832459	0	116	119	1	1	0	1	2	0
7	1	5	17	61589	6150	0.61670482147019356489	0	1	712.96168899971235078	0	NaN	NaN	0	1	1	0	1	0
7	1	5	18	6559	66	0.61675102193839848042	0	1	621.96189600035722833	0	NaN	NaN	0	1	1	0	1	0
7	1	5	19	8662	5550	0.61679741519037634134	0	1	1953.0737120003323071	0	NaN	NaN	0	1	1	0	1	0
7	1	5	20	30933	6106	0.61684360553044825792	0	1	1741.7232750003677211	0	NaN	NaN	0	1	1	0	1	0
7	1	5	21	46022	7973	0.6168900106567889452	1	1	1166.9087420004871092	0	26	NaN	1	1	0	1	2	0
7	1	5	22	59375	4401	0.61693620344158262014	0	1	1355.6557899992185412	0	NaN	NaN	0	1	1	0	1	0
7	1	5	23	9032	2727	0.61702878703363239765	0	1	1957.7253009993000887	0	NaN	NaN	0	1	1	0	1	0
7	1	5	24	64047	6036	0.61707507341634482145	0	1	1456.9928870005242061	0	NaN	NaN	0	1	1	0	1	0
7	1	5	25	35040	7741	0.61712137551512569189	0	1	1162.6863299998149159	0	NaN	NaN	0	1	1	0	1	0
7	1	5	26	72880	2387	0.61716758366674184799	0	1	1254.6372919996429118	0	NaN	NaN	0	1	1	0	1	0
7	1	5	27	56210	7130	0.61721386632416397333	0	1	857.98182700000324985	0	NaN	NaN	0	1	1	0	1	0
7	1	5	28	52634	6647	0.61726016632746905088	0	1	1044.5145769999726326	0	NaN	NaN	0	1	1	0	1	0
7	1	5	29	36904	5925	0.6173064475879073143	1	1	2554.1752139997697668	0	118	NaN	1	1	0	1	2	0
7	1	5	30	17311	3686	0.61735275178216397762	0	1	802.77079799998318776	0	NaN	NaN	0	1	1	0	1	0
7	1	5	31	70336	970	0.61739904375281184912	1	1	1337.6064900003257208	0	153	NaN	1	1	0	1	2	0
7	1	5	32	16724	201	0.61744535947218537331	0	1	800.87786200056143571	0	NaN	NaN	0	1	1	0	1	0
7	1	5	33	25558	4687	0.61749162618070840836	1	1	2331.3877059999867924	0	91	NaN	1	1	0	1	2	0
7	1	5	34	72880	2387	0.61758421442937105894	1	1	1038.3093559994449606	0	7	NaN	1	1	0	1	2	0
7	1	5	35	9624	6349	0.61763052630703896284	0	1	1425.1022640000883257	0	NaN	NaN	0	1	1	0	1	0
7	1	5	36	65868	3457	0.6176768086152151227	1	1	941.39386100050614914	0	85	NaN	1	1	0	1	2	0
7	1	5	37	12913	5237	0.61772310500964522362	0	1	1453.1055289999130764	0	NaN	NaN	0	1	1	0	1	0
7	1	5	38	12913	5237	0.61776939558330923319	1	1	721.24395999981061323	0	0	NaN	1	1	0	1	2	0
7	1	5	39	71887	5169	0.61781568522565066814	1	1	777.55119500034197699	0	180	222	1	1	0	1	2	0
7	1	5	40	29522	2284	0.61786198476329445839	0	1	1058.3843459999116021	0	NaN	NaN	0	1	1	0	1	0
7	1	5	41	54353	4210	0.61790828127413988113	0	1	809.93003999992652098	0	NaN	NaN	0	1	1	0	1	0
7	1	5	42	66112	3597	0.61795457242988049984	0	1	954.64847299990651663	0	NaN	NaN	0	1	1	0	1	0
7	1	5	43	41392	2768	0.61804716312326490879	0	1	1158.1603020003967686	0	NaN	NaN	0	1	1	0	1	0
7	1	5	44	71380	5714	0.61809345823712646961	0	1	802.73861800014856271	0	NaN	NaN	0	1	1	0	1	0
7	1	5	45	538	7852	0.61813975032418966293	1	1	3100.1288739998926758	1	81	112	1	1	1	1	2	0
7	1	5	46	42844	9788	0.61818604485597461462	0	1	1034.6330290003606933	0	NaN	NaN	0	1	1	0	1	0
7	1	5	47	65287	9094	0.61823232821188867092	0	1	1402.911340000173368	0	NaN	NaN	0	1	1	0	1	0
7	1	5	48	2090	2607	0.6182786265853792429	0	1	947.3493710002003354	0	NaN	NaN	0	1	1	0	1	0
7	1	5	49	18282	9272	0.61832492670509964228	0	1	1644.7531229996457114	1	NaN	NaN	0	1	1	1	1	0
7	1	5	50	4748	5192	0.61837121529970318079	0	1	1216.1765050004760269	0	NaN	NaN	0	1	1	0	1	0
7	1	5	51	8768	7185	0.61841750587336719036	0	1	696.34214899997459725	0	NaN	NaN	0	1	1	0	1	0
7	1	5	52	29146	6581	0.61846371216233819723	0	1	978.05795800013584085	0	NaN	NaN	0	1	1	0	1	0
7	1	5	53	43292	1492	0.61851000622846186161	0	1	1037.6823569995394791	0	NaN	NaN	0	1	1	0	1	0
7	1	5	54	41607	2196	0.6185563007602468133	0	1	710.20336400033556856	0	NaN	NaN	0	1	1	0	1	0
7	1	5	55	42510	7998	0.61864889191929250956	0	1	1034.2983989994536387	0	NaN	NaN	0	1	1	0	1	0
7	1	5	56	40576	531	0.61869517667219042778	0	1	1429.3703249995814986	0	NaN	NaN	0	1	1	0	1	0
7	1	5	57	9313	6520	0.61874147725757211447	0	1	786.74036899974453263	0	NaN	NaN	0	1	1	0	1	0
7	1	5	58	15068	3898	0.61878776655066758394	0	1	1847.4968929995156941	0	NaN	NaN	0	1	1	0	1	0
7	1	5	59	43591	9743	0.61883406573906540871	0	1	1328.7312960001145257	0	NaN	NaN	0	1	1	0	1	0
7	1	5	60	41287	2430	0.6188803594559431076	0	1	978.93750299954263028	0	NaN	NaN	0	1	1	0	1	0
7	1	5	61	9747	3694	0.61892665375489741564	1	1	1902.5088039998081513	0	214	NaN	1	1	0	1	2	0
7	1	5	62	11710	3548	0.61897294735535979271	1	1	1272.4613059999683173	0	103	NaN	1	1	0	1	2	0
7	1	5	63	40672	1939	0.6190192362992092967	0	1	987.73513499963883078	0	NaN	NaN	0	1	1	0	1	0
7	1	6	1	38829	1129	0.62052245228551328182	0	1	1011.9998119998854236	0	NaN	NaN	0	1	1	0	1	0
7	1	6	2	35236	3996	0.6205687390174716711	0	1	1133.6751660001027631	0	NaN	NaN	0	1	1	0	1	0
7	1	6	3	12437	5160	0.62061503937002271414	0	1	901.69704599975375459	0	NaN	NaN	0	1	1	0	1	0
7	1	6	4	34393	2539	0.6206613446120172739	0	1	1046.6762280002512853	0	NaN	NaN	0	1	1	0	1	0
7	1	6	5	56595	5155	0.62070762156508862972	0	1	933.40210699989256682	0	NaN	NaN	0	1	1	0	1	0
7	1	6	6	58895	3647	0.62075392564292997122	0	1	1203.6531300000206102	0	NaN	NaN	0	1	1	0	1	0
7	1	6	7	45403	7233	0.620800209348089993	0	1	1709.8472380002931459	0	NaN	NaN	0	1	1	0	1	0
7	1	6	8	60490	5772	0.62084652169141918421	1	0	1702.5465159995292197	0	234	NaN	1	0	1	0	1	0
7	1	6	9	36909	5761	0.62089280621148645878	0	1	886.41442700009065447	0	NaN	NaN	0	1	1	0	1	0
7	1	6	10	67643	9964	0.62093910668045282364	0	1	715.17692400084342808	0	NaN	NaN	0	1	1	0	1	0
7	1	6	11	22463	3903	0.62098539050202816725	0	1	1027.8733109998938744	0	NaN	NaN	0	1	1	0	1	0
7	1	6	12	1661	9657	0.6210316995857283473	0	1	767.45324999956210377	0	NaN	NaN	0	1	1	0	1	0
7	1	6	13	45006	1808	0.62112427875399589539	0	1	954.89199999974516686	0	NaN	NaN	0	1	1	0	1	0
7	1	6	14	50705	3036	0.62117057386785745621	0	1	789.54742899986740667	0	NaN	NaN	0	1	1	0	1	0
7	1	6	15	13143	9484	0.6212168671190738678	0	0	2641.7615219997969689	0	NaN	NaN	0	0	0	1	2	0
7	1	6	16	23294	4025	0.62126315757632255554	1	0	2456.3205920003383653	0	155	156	1	0	1	0	1	0
7	1	6	17	17317	6068	0.62130945839453488588	0	1	1983.705715999349195	0	NaN	NaN	0	1	1	0	1	0
7	1	6	18	421	5418	0.62135574617423117161	0	1	852.50369599998521153	0	NaN	NaN	0	1	1	0	1	0
7	1	6	19	1293	4005	0.62140204710885882378	0	1	930.03683599999931175	0	NaN	NaN	0	1	1	0	1	0
7	1	6	20	28858	9960	0.6214483301155269146	0	1	753.57286500002373941	0	NaN	NaN	0	1	1	0	1	0
7	1	6	21	46540	6726	0.6214946303516626358	1	0	1088.4612219997507054	0	193	NaN	1	0	1	0	1	0
7	1	6	22	2843	2504	0.62154091533739119768	0	1	1533.4093580004264368	0	NaN	NaN	0	1	1	0	1	0
7	1	6	23	30045	2735	0.62163350742775946856	0	1	1324.5924789998753113	0	NaN	NaN	0	1	1	0	1	0
7	1	6	24	50841	8174	0.62167981709353625774	0	1	933.29333499968925025	0	NaN	NaN	0	1	1	0	1	0
7	1	6	25	45921	7260	0.62172609264962375164	0	1	837.9326489994127769	0	NaN	NaN	0	1	1	0	1	0
7	1	6	26	58753	5558	0.62177239754237234592	0	1	944.45699400057492312	0	NaN	NaN	0	1	1	0	1	0
7	1	6	27	57466	7780	0.62181868730112910271	0	1	756.16930300020612776	0	NaN	NaN	0	1	1	0	1	0
7	1	6	28	61115	1014	0.62186499219387769699	0	1	867.32117100018513156	0	NaN	NaN	0	1	1	0	1	0
7	1	6	29	62139	3638	0.6219112790422514081	0	1	934.54522299998643575	0	NaN	NaN	0	1	1	0	1	0
7	1	6	30	65492	6843	0.62195757124572992325	1	0	2135.2527039998676628	0	240	NaN	1	0	1	0	1	0
7	1	6	31	38249	9313	0.62200385995674878359	0	1	1503.798874000494834	0	NaN	NaN	0	1	1	0	1	0
7	1	6	32	45105	1702	0.62205015402287244797	0	1	1092.1487559999150108	0	NaN	NaN	0	1	1	0	1	0
7	1	6	33	45596	616	0.62209645553957670927	0	1	702.79313200080650859	0	NaN	NaN	0	1	1	0	1	0
7	1	6	34	69151	3640	0.62214275065343827009	0	1	1906.8881700004567392	0	NaN	NaN	0	1	1	0	1	0
7	1	6	35	66963	8318	0.62223524146247655153	0	1	975.10308300024917116	0	NaN	NaN	0	1	1	0	1	0
7	1	6	36	62302	9017	0.62228152714669704437	0	1	1328.0933289997847169	0	NaN	NaN	0	1	1	0	1	0
7	1	6	37	27636	9347	0.62232782039791345596	0	1	1402.9949579999083653	0	NaN	NaN	0	1	1	0	1	0
7	1	6	38	21780	5238	0.62237411970272660255	0	1	859.72423500061267987	0	NaN	NaN	0	1	1	0	1	0
7	1	6	39	51580	6246	0.62242040969431400299	0	1	1424.1844820007827366	0	NaN	NaN	0	1	1	0	1	0
7	1	6	40	5628	3194	0.62246670958120375872	1	1	2847.3379110000678338	1	158	NaN	1	1	1	1	2	0
7	1	6	41	53053	727	0.62251299468334764242	1	1	1279.5033020001937984	1	297	NaN	1	1	1	1	2	0
7	1	6	42	25713	6311	0.62255929817911237478	0	1	911.2695590001749224	0	NaN	NaN	0	1	1	0	1	0
7	1	6	43	44290	8935	0.62260558502748608589	1	1	808.95031500040204264	0	189	NaN	1	1	0	1	2	0
7	1	6	44	9918	116	0.62269817967899143696	0	1	1065.2537999994819984	0	NaN	NaN	0	1	1	0	1	0
7	1	6	45	24462	2297	0.62274447490926831961	0	0	1739.4886840002072859	0	NaN	NaN	0	0	0	1	2	0
7	1	6	46	65135	3293	0.62279076897539198399	0	1	1047.2508579996429035	0	NaN	NaN	0	1	1	0	1	0
7	1	6	47	26599	351	0.62283705570735037327	0	1	2565.0284180001108325	0	NaN	NaN	0	1	1	0	1	0
7	1	6	48	3209	2336	0.62288334849290549755	0	0	2470.5758390000482905	0	NaN	NaN	0	0	0	1	2	0
7	1	6	49	21602	265	0.62292965035885572433	1	1	713.68774700022186153	0	96	115	1	1	0	1	2	0
7	1	6	50	42977	9949	0.62297593778930604458	1	0	807.98018299992691027	0	143	NaN	1	0	1	0	1	0
7	1	6	51	421	5418	0.62302223546430468559	1	1	788.79978099939762615	0	32	NaN	1	1	0	1	2	0
7	1	6	52	24736	6017	0.62306852696929126978	0	1	892.77673499964294024	0	NaN	NaN	0	1	1	0	1	0
7	1	6	53	27346	8280	0.62316111661493778229	0	1	817.97807300063141156	0	NaN	NaN	0	1	1	0	1	0
7	1	6	54	35207	9965	0.62320741522125899792	0	1	743.36078299984365003	0	NaN	NaN	0	1	1	0	1	0
7	1	6	55	14231	8516	0.62325370241887867451	0	1	1026.3617990003695013	0	NaN	NaN	0	1	1	0	1	0
7	1	6	56	3975	8054	0.6233000047504901886	1	1	664.3240670000523096	0	126	227	1	1	0	1	2	0
7	1	6	57	56198	1266	0.62334629823453724384	1	1	903.6628650001148344	0	144	237	1	1	0	1	2	0
7	1	6	58	3940	8093	0.62339259288273751736	0	1	867.57138099983421853	0	NaN	NaN	0	1	1	0	1	0
7	1	6	59	53181	8498	0.62343878624960780144	0	1	829.68759600043995306	0	NaN	NaN	0	1	1	0	1	0
7	1	6	60	6250	2469	0.62348508322611451149	1	1	919.56614399987302022	0	127	NaN	1	1	0	1	2	0
7	1	6	61	60306	830	0.62353137414902448654	0	1	1105.9318879997590557	0	NaN	NaN	0	1	1	0	1	0
7	1	6	62	65750	6274	0.62357767438516020775	1	0	1232.6717799996913527	0	224	NaN	1	0	1	0	1	0
7	1	7	1	50841	8174	0.62507555971387773752	1	1	953.83138499983033398	0	38	NaN	1	1	0	1	2	0
7	1	7	2	48239	4615	0.6251218684483319521	0	1	801.80664100043941289	0	NaN	NaN	0	1	1	0	1	0
7	1	7	3	17453	2736	0.62516815518029034138	0	1	816.47651100047369255	0	NaN	NaN	0	1	1	0	1	0
7	1	7	4	183	5200	0.62521446426399052143	1	1	1230.91910299990559	0	291	NaN	1	1	0	1	2	0
7	1	7	5	33268	2330	0.62526073853950947523	0	1	777.31320600014441879	0	NaN	NaN	0	1	1	0	1	0
7	1	7	6	47538	4470	0.6253070472739636898	0	1	1008.2705680006256443	0	NaN	NaN	0	1	1	0	1	0
7	1	7	7	4634	4068	0.62535333354026079178	1	0	834.04799700019793818	0	304	NaN	1	0	1	0	1	0
7	1	7	8	45480	5858	0.62539963203016668558	0	1	1135.3517259994987398	0	NaN	NaN	0	1	1	0	1	0
7	1	7	9	64910	1538	0.62544592202175408602	1	0	1908.8643380000576144	0	300	NaN	1	0	1	0	1	0
7	1	7	10	67325	6560	0.62553850677795708179	0	0	1790.8192970007803524	0	NaN	NaN	0	0	0	1	2	0
7	1	7	11	7268	8283	0.62558481551241129637	0	1	913.09867800009669736	0	NaN	NaN	0	1	1	0	1	0
7	1	7	12	12437	5160	0.62563109421171247959	1	1	1003.8950200005274382	0	70	NaN	1	1	0	1	2	0
7	1	7	13	65135	3293	0.62567739933729171753	1	1	1214.6371130002080463	0	28	NaN	1	1	0	1	2	0
7	1	7	14	44074	5965	0.62572368641849607229	1	1	1062.9631150004570372	0	218	NaN	1	1	0	1	2	0
7	1	7	15	16428	2408	0.62576998001895844936	0	1	764.75594200019259006	0	NaN	NaN	0	1	1	0	1	0
7	1	7	16	48724	9667	0.62581627489998936653	1	1	759.80156500008888543	0	214	NaN	1	1	0	1	2	0
7	1	7	17	15691	1866	0.62586257734801620245	1	0	1100.7094719998349319	0	222	NaN	1	0	1	0	1	0
7	1	7	18	58648	3342	0.62590875837486237288	0	1	1208.1302980004693381	0	NaN	NaN	0	1	1	0	1	0
7	1	7	19	61115	1014	0.62595505977515131235	1	1	788.16186500080220867	0	52	NaN	1	1	0	1	2	0
7	1	7	20	21863	7951	0.62604764360003173351	0	1	887.51781100017979043	0	NaN	NaN	0	1	1	0	1	0
7	1	7	21	48130	4784	0.62609393475577235222	0	1	865.6028690002131043	0	NaN	NaN	0	1	1	0	1	0
7	1	7	22	64349	5660	0.62614023673813790083	0	1	909.06501999961619731	0	NaN	NaN	0	1	1	0	1	0
7	1	7	23	29803	8315	0.62618652288801968098	0	1	877.21956600034900475	0	NaN	NaN	0	1	1	0	1	0
7	1	7	24	45018	1098	0.62623282545246183872	0	1	1078.4743189997243462	0	NaN	NaN	0	1	1	0	1	0
7	1	7	25	19781	1431	0.6262791152112185955	0	1	1870.5486720000408241	0	NaN	NaN	0	1	1	0	1	0
7	1	7	26	45480	5858	0.62632541009224951267	1	1	945.19064900032390142	0	17	NaN	1	1	0	1	2	0
7	1	7	27	29040	2848	0.62637170241214334965	0	1	838.63021999968623277	0	NaN	NaN	0	1	1	0	1	0
7	1	7	28	4787	36	0.62641799706034362316	0	1	1302.2844200004328741	0	NaN	NaN	0	1	1	0	1	0
7	1	7	29	44135	6866	0.62646428728476166725	0	1	850.22973599916440435	0	NaN	NaN	0	1	1	0	1	0
7	1	7	30	45018	1098	0.62651058263145387173	1	1	789.23645600025338354	0	5	NaN	1	1	0	1	2	0
7	1	7	31	29803	8315	0.6265568835660815239	1	1	825.64261900006385986	0	7	NaN	1	1	0	1	2	0
7	1	7	32	49317	5663	0.62660317192785441875	0	1	1419.472065000263683	0	NaN	NaN	0	1	1	0	1	0
7	1	7	33	68148	2218	0.62664946273434907198	0	1	823.68544600012683077	0	NaN	NaN	0	1	1	0	1	0
7	1	7	34	45480	5858	0.62674206309020519257	1	1	702.41710700065596029	0	7	25	1	1	0	1	2	0
7	1	7	35	18282	9272	0.62678835401311516762	1	0	879.43638200067653088	0	110	NaN	1	0	1	0	1	0
7	1	7	36	9428	8216	0.62683464388828724623	0	1	1504.4638190001933253	0	NaN	NaN	0	1	1	0	1	0
7	1	7	37	41012	7520	0.62688094028271734715	0	1	933.41785399934451561	0	NaN	NaN	0	1	1	0	1	0
7	1	7	38	13955	5919	0.62692723434884101152	0	1	1238.3184800000890391	0	NaN	NaN	0	1	1	0	1	0
7	1	7	39	38655	2451	0.62697352992836385965	0	1	782.02850300021964358	0	NaN	NaN	0	1	1	0	1	0
7	1	7	40	49372	9575	0.62701982504222542048	0	1	1102.3727089996100403	0	NaN	NaN	0	1	1	0	1	0
7	1	7	41	33268	2330	0.62706612132024019957	1	1	1122.7276019999408163	0	35	NaN	1	1	0	1	2	0
7	1	7	42	57516	7310	0.62711240560747683048	0	1	802.67375100083881989	0	NaN	NaN	0	1	1	0	1	0
7	1	7	43	62905	8175	0.62715871143154799938	0	1	674.12361600054282462	0	NaN	NaN	0	1	1	0	1	0
7	1	7	44	26081	2259	0.62720499478746205568	1	1	2516.9072569997297251	1	274	NaN	1	1	1	1	2	0
7	1	7	45	59375	4401	0.62725119164679199457	1	0	1491.2239010000121198	0	147	NaN	1	0	1	0	1	0
7	1	7	46	44722	3902	0.62734378047753125429	1	0	1624.6434270005920553	0	396	NaN	1	0	1	0	1	0
7	1	7	47	16055	9335	0.62739007372874766588	0	1	1533.2029099999999744	0	NaN	NaN	0	1	1	0	1	0
7	1	7	48	757	2760	0.6274363688426092267	0	1	863.6902950001967838	0	NaN	NaN	0	1	1	0	1	0
7	1	7	49	24736	6017	0.62748267129063606262	1	1	1247.4709990001429105	0	58	NaN	1	1	0	1	2	0
7	1	7	50	27348	8170	0.62752896547317504883	0	1	745.77405499985616188	0	NaN	NaN	0	1	1	0	1	0
7	1	7	51	10432	5262	0.62757525150664150715	0	1	2102.4929429995609098	0	NaN	NaN	0	1	1	0	1	0
7	1	7	52	10432	5262	0.62762155057862401009	1	1	658.52954000001773238	0	0	NaN	1	1	0	1	2	0
7	1	7	53	3209	2336	0.62766784464474767447	1	1	1422.7962909999405383	0	66	NaN	1	1	0	1	2	0
7	1	7	54	69842	3862	0.62771413405425846577	0	1	1570.8745910005745827	0	NaN	NaN	0	1	1	0	1	0
7	1	7	55	26334	8482	0.62780672183725982904	0	1	686.22303799929795787	0	NaN	NaN	0	1	1	0	1	0
7	1	7	56	41646	9525	0.62785301648546010256	0	1	727.93380300026910845	0	NaN	NaN	0	1	1	0	1	0
7	1	7	57	34790	3450	0.62789931613951921463	0	1	1410.7663390004745452	0	NaN	NaN	0	1	1	0	1	0
7	1	7	58	57662	6692	0.62794560694601386786	1	0	1628.2600009999441681	0	254	NaN	1	0	1	0	1	0
7	1	7	59	19182	230	0.6279919034568592906	0	1	912.77964599976257887	0	NaN	NaN	0	1	1	0	1	0
7	1	7	60	34727	5967	0.62803819973487406969	0	1	974.14446599941584282	0	NaN	NaN	0	1	1	0	1	0
7	1	7	61	21922	7856	0.62808449217118322849	0	1	733.35060000044904882	0	NaN	NaN	0	1	1	0	1	0
7	1	7	62	39248	8586	0.62813078879844397306	0	1	637.28384299975004978	0	NaN	NaN	0	1	1	0	1	0
7	1	7	63	56210	7130	0.62817708158399909735	1	1	1381.2232279997260775	0	160	NaN	1	1	0	2	2	0
7	1	8	1	58333	8109	0.62970101565588265657	0	1	2017.2259559994927258	0	NaN	NaN	0	1	1	0	1	0
7	1	8	2	6559	66	0.62974720890633761883	1	1	1463.4155559997452656	0	171	NaN	1	1	0	1	2	0
7	1	8	3	72081	992	0.62979350786190479994	0	1	1310.9270470004048548	0	NaN	NaN	0	1	1	0	1	0
7	1	8	4	65278	2986	0.62983979913406074047	0	1	710.57508600006258348	0	NaN	NaN	0	1	1	0	1	0
7	1	8	5	30104	1192	0.62988609797321259975	0	1	757.72984699960943544	0	NaN	NaN	0	1	1	0	1	0
7	1	8	6	19433	5568	0.62993238586932420731	0	1	1040.2471020006487379	0	NaN	NaN	0	1	1	0	1	0
7	1	8	7	5462	2203	0.62997868726961314678	0	1	1068.2522130000506877	0	NaN	NaN	0	1	1	0	1	0
7	1	8	8	8768	7185	0.6300249776104465127	1	1	866.80010400050377939	0	144	NaN	1	1	0	1	2	0
7	1	8	9	37066	4001	0.63007126760203391314	0	1	827.41303500006324612	0	NaN	NaN	0	1	1	0	1	0
7	1	8	10	71777	4285	0.63016386399976909161	1	1	823.04406000002927613	0	261	NaN	1	1	0	1	2	0
7	1	8	11	36068	475	0.63021015911363065243	0	1	971.60731699932512129	0	NaN	NaN	0	1	1	0	1	0
7	1	8	12	66892	7336	0.63025644805748015642	1	1	1102.5983810004618135	0	323	NaN	1	1	0	1	2	0
7	1	8	13	15184	1800	0.63030274619814008474	0	1	1110.1070929998968495	0	NaN	NaN	0	1	1	0	1	0
7	1	8	14	6810	9121	0.63034904026426374912	1	0	1532.3827530000926345	0	239	NaN	1	0	1	0	1	0
7	1	8	15	64547	7428	0.63039532746188342571	0	1	1187.0235119995413697	0	NaN	NaN	0	1	1	0	1	0
7	1	8	16	49317	5663	0.63044163165614008904	1	1	916.82049900009587873	0	46	NaN	1	1	0	1	2	0
7	1	8	17	34308	6579	0.63048791897017508745	0	1	1280.0288980006371276	0	NaN	NaN	0	1	1	0	1	0
7	1	8	18	34346	7917	0.63053421699441969395	0	1	888.71079999989888165	0	NaN	NaN	0	1	1	0	1	0
7	1	8	19	5953	3756	0.63058050838299095631	1	0	1273.0176320001191925	0	219	NaN	1	0	1	0	1	0
7	1	8	20	30933	6106	0.63067309756297618151	1	1	1320.1504999997268897	0	187	NaN	1	1	0	1	2	0
7	1	8	21	16600	2186	0.63071938592474907637	0	1	1867.4909460005437722	0	NaN	NaN	0	1	1	0	1	0
7	1	8	22	48239	4615	0.630765678477473557	1	1	852.49521100013225805	0	82	NaN	1	1	0	1	2	0
7	1	8	23	43817	4306	0.63081198185682296753	0	1	1853.2476860000315355	1	NaN	NaN	0	1	1	1	1	0
7	1	8	24	62906	5523	0.63085827045142650604	0	1	1287.0400680003513116	0	NaN	NaN	0	1	2	0	1	0
7	1	8	25	53162	7974	0.63090457010548561811	1	0	965.35322799991263309	0	205	NaN	1	0	1	0	1	0
7	1	8	26	43126	1196	0.63095085835084319115	0	1	953.34860100047080778	0	NaN	NaN	0	1	1	0	1	0
7	1	8	27	932	9718	0.63099705218337476254	1	0	947.20342599975992925	0	317	NaN	1	0	1	0	1	0
7	1	8	28	723	9244	0.63104335824027657509	0	1	2162.7780270000585006	0	NaN	NaN	0	1	1	0	1	0
7	1	8	29	68923	2604	0.63108964555431157351	0	1	1005.7759909996093484	0	NaN	NaN	0	1	1	0	1	0
7	1	8	30	6163	4793	0.63113594136666506529	0	1	1140.8993089999057702	0	NaN	NaN	0	1	1	0	1	0
7	1	8	31	71754	988	0.63122852763626724482	0	1	2424.8467269999309792	0	NaN	NaN	0	1	1	0	1	0
7	1	8	32	15273	5894	0.63127482577692717314	0	1	965.00204299991310108	0	NaN	NaN	0	1	1	0	1	0
7	1	8	33	7166	1732	0.63132112042512744665	0	1	1732.9323600006318884	0	NaN	NaN	0	1	1	0	1	0
7	1	8	34	49169	6066	0.63136740901973098516	0	1	849.98518199972750153	0	NaN	NaN	0	1	1	0	1	0
7	1	8	35	9345	7020	0.63141370925586670637	0	1	1444.2435629998726654	0	NaN	NaN	0	1	1	0	1	0
7	1	8	36	57800	9798	0.63146000436972826719	0	1	847.01754200068535283	0	NaN	NaN	0	1	1	0	1	0
7	1	8	37	13272	1771	0.63150629715528339148	0	1	1549.731803999748081	0	NaN	NaN	0	1	1	0	1	0
7	1	8	38	1409	5382	0.63155259448103606701	0	1	1208.4844350001731073	0	NaN	NaN	0	1	1	0	1	0
7	1	8	39	38501	8917	0.63159887795336544514	0	1	902.94953699958568905	0	NaN	NaN	0	1	1	0	1	0
7	1	8	40	25713	6311	0.63164518296252936125	1	1	1270.9235210004408145	0	122	NaN	1	1	0	1	2	0
7	1	8	41	66973	5514	0.63169146946165710688	0	1	904.3894590004128986	0	NaN	NaN	0	1	1	0	1	0
7	1	8	42	19313	3924	0.63178406248334795237	0	1	707.46434400007274235	0	NaN	NaN	0	1	1	0	1	0
7	1	8	43	68923	2604	0.63183035084512084723	1	1	883.46061300035216846	0	13	NaN	1	1	0	1	2	0
7	1	8	44	30104	1192	0.63187664258293807507	1	1	902.34889000021212269	0	38	NaN	1	1	0	1	2	0
7	1	8	45	22150	2755	0.63192294503096491098	0	1	818.54995100002270192	0	NaN	NaN	0	1	1	0	1	0
7	1	8	46	35741	9761	0.63196923909708857536	0	1	1052.255616999900667	0	NaN	NaN	0	1	1	0	1	0
7	1	8	47	5433	1968	0.6320155303692445159	0	1	1342.8368970007795724	0	NaN	NaN	0	1	1	0	1	0
7	1	8	48	25035	7559	0.63206182105932384729	1	1	1215.9109149997675559	0	268	NaN	1	1	0	1	2	0
7	1	8	49	49099	1551	0.63210812176112085581	0	1	1104.1697769996972056	0	NaN	NaN	0	1	1	0	1	0
7	1	8	50	72122	6666	0.63215441151987761259	1	0	1226.3466240001434926	0	336	NaN	1	0	1	0	1	0
7	1	8	51	27348	8170	0.63220070407260209322	1	1	1139.2551420003655949	0	63	NaN	1	1	0	1	2	0
7	1	8	52	5953	3756	0.63224690710194408894	1	1	1303.7879900002735667	0	32	252	1	1	0	1	2	0
7	1	8	53	17438	2262	0.63229320012032985687	0	1	1839.6549199997025426	0	NaN	NaN	0	1	1	0	1	0
7	1	8	54	48130	4784	0.63233949278946965933	1	1	912.82461500031786272	0	95	NaN	1	1	0	1	2	0
7	1	8	55	71380	5714	0.63243207905907183886	1	1	792.42536099991411902	0	198	NaN	1	1	0	1	2	0
7	1	8	56	28108	1108	0.63247837242670357227	1	1	1278.8857840005221078	0	279	389	1	1	0	1	2	0
7	1	8	57	26198	1224	0.63252467033453285694	0	1	735.1178879998769844	0	NaN	NaN	0	1	1	0	1	0
7	1	8	58	12492	9934	0.63257096579764038324	0	1	2073.3859100000699982	0	NaN	NaN	0	1	1	0	1	0
7	1	8	59	56290	1317	0.6326172597473487258	0	1	1301.4791469995543594	0	NaN	NaN	0	1	1	0	1	0
7	1	8	60	58145	805	0.63266355195082724094	0	1	1066.8194049994781381	0	NaN	NaN	0	1	1	0	1	0
7	1	8	61	55219	5274	0.63270984438713639975	0	1	1014.5014190002257237	0	NaN	NaN	0	1	1	0	1	0
7	1	8	62	9056	5350	0.6327561443904414773	0	1	853.12178300046070945	0	NaN	NaN	0	1	1	0	1	0
7	1	9	1	17438	2262	0.63561020861379802227	1	1	1122.5828819997332175	0	9	NaN	1	1	0	1	2	0
7	1	9	2	51580	6246	0.63565650058444589376	1	1	980.4782100000011269	0	149	NaN	1	1	0	1	2	0
7	1	9	3	18282	9272	0.63570279942359775305	1	1	2032.1862000000692206	1	92	203	1	1	1	1	2	0
7	1	9	4	61916	4741	0.63574909779708832502	1	1	1312.6524040008007432	0	242	NaN	1	1	0	1	2	0
7	1	9	5	11943	145	0.63579538441263139248	0	1	1304.4551299999511684	0	NaN	NaN	0	1	1	0	1	0
7	1	9	6	61800	6367	0.63584169372916221619	0	1	885.96002800022688461	0	NaN	NaN	0	1	1	0	1	0
7	1	9	7	11710	3548	0.63588796963449567556	1	1	828.19722200019896263	0	194	298	1	1	0	1	2	0
7	1	9	8	20267	2752	0.63593428838066756725	0	1	1024.5315100000880193	0	NaN	NaN	0	1	1	0	1	0
7	1	9	9	19182	230	0.63598055532202124596	1	1	1326.8007959995884448	0	74	NaN	1	1	0	1	2	0
7	1	9	10	50469	9922	0.63602688745595514774	0	1	873.99716399977478432	0	NaN	NaN	0	1	1	0	1	0
7	1	9	11	35480	5889	0.63607314391992986202	0	1	1305.2382799996848917	0	NaN	NaN	0	1	1	0	1	0
7	1	9	12	44292	2377	0.63611947942990809679	0	1	816.13186899994616397	0	NaN	NaN	0	1	1	0	1	0
7	1	9	13	43292	1492	0.63616573729086667299	1	0	1742.8766749999340391	0	209	NaN	1	0	1	0	1	0
7	1	9	14	5628	3194	0.63625832542311400175	1	1	1034.4153940004616743	0	160	319	1	1	0	1	2	0
7	1	9	15	25339	1899	0.63630467501934617758	0	1	954.87252299972169567	0	NaN	NaN	0	1	1	0	1	0
7	1	9	16	9808	9049	0.63635091367177665234	0	1	1342.6273590002892888	0	NaN	NaN	0	1	1	0	1	0
7	1	9	17	64397	5081	0.63639725977554917336	1	0	886.32143600079871248	0	256	NaN	1	0	1	0	1	0
7	1	9	18	50841	8174	0.63644350168760865927	1	1	681.83593599951564102	0	141	180	1	1	0	1	2	0
7	1	9	19	47474	1624	0.63648985663894563913	0	1	730.77423299946531188	0	NaN	NaN	0	1	1	0	1	0
7	1	9	20	38818	511	0.63653608819004148245	0	0	815.18790199970680987	0	NaN	NaN	0	0	0	1	2	0
7	1	9	21	65788	4420	0.63658245326951146126	0	1	776.35067200026242062	0	NaN	NaN	0	1	1	0	1	0
7	1	9	22	68838	5745	0.63662867073435336351	0	1	1802.9208510006355937	0	NaN	NaN	0	1	1	0	1	0
7	1	9	23	4066	3492	0.63667504920158535242	0	1	752.69294300051114988	0	NaN	NaN	0	1	1	0	1	0
7	1	9	24	66490	919	0.63672125840093940496	0	1	886.467435000668047	0	NaN	NaN	0	1	1	0	1	0
7	1	9	25	9545	5733	0.63681385305244475603	0	1	1303.106911999748263	0	NaN	NaN	0	1	1	0	1	0
7	1	9	26	35560	8542	0.63686024991329759359	0	1	762.36329099992872216	0	NaN	NaN	0	1	1	0	1	0
7	1	9	27	43973	2220	0.63690644479356706142	0	1	1603.4868110000388697	0	NaN	NaN	0	1	1	0	1	0
7	1	9	28	71233	984	0.63695284677669405937	0	1	1499.5948989999305923	0	NaN	NaN	0	1	2	0	1	0
7	1	9	29	23724	7057	0.63699903269298374653	0	0	2637.3881019999316777	0	NaN	NaN	0	0	0	1	2	0
7	1	9	30	68883	5896	0.63704544247593730688	0	1	650.80492000015510712	0	NaN	NaN	0	1	1	0	1	0
7	1	9	31	49675	7390	0.63709162094164639711	0	1	726.23878200010949513	0	NaN	NaN	0	1	1	0	1	0
7	1	9	32	55020	5139	0.637138026999309659	0	1	758.64491899938002462	0	NaN	NaN	0	1	1	0	1	0
7	1	9	33	65067	2320	0.63718420814257115126	0	1	1209.8589279994484968	0	NaN	NaN	0	1	1	0	1	0
7	1	9	34	5274	6169	0.63723045575898140669	0	1	755.18974399983562762	0	NaN	NaN	0	1	1	0	1	0
7	1	9	35	55696	4523	0.63727669173385947943	1	0	1288.8200669995057979	0	522	NaN	1	0	1	0	1	0
7	1	9	36	37769	7240	0.63736928743310272694	0	1	1203.0546379992301809	0	NaN	NaN	0	1	1	0	1	0
7	1	9	37	25879	6069	0.63741557474713772535	0	1	1063.3393690004595555	0	NaN	NaN	0	1	1	0	1	0
7	1	9	38	40547	6817	0.63746186753269284964	0	1	1345.3591199995571515	0	NaN	NaN	0	1	1	0	1	0
7	1	9	39	65067	2320	0.63750816707033663988	1	1	866.85729300006642006	0	5	NaN	1	1	0	1	2	0
7	1	9	40	9140	3951	0.63755445962306112051	1	0	964.06159599973761942	0	291	NaN	1	0	1	0	1	0
7	1	9	41	22797	7568	0.63760075229220092297	0	1	902.42421999937505461	0	NaN	NaN	0	1	1	0	1	0
7	1	9	42	65547	7447	0.63764705159701406956	0	1	1011.9811129989102483	0	NaN	NaN	0	1	1	0	1	0
7	1	9	43	64958	6540	0.63769334857352077961	0	1	918.94847899857268203	0	NaN	NaN	0	1	1	0	1	0
7	1	9	44	20631	2255	0.63773963355924934149	0	1	1108.0182149999018293	0	NaN	NaN	0	1	1	0	1	0
7	1	9	45	40561	9088	0.63783222518395632505	0	1	1217.4319220011966536	0	NaN	NaN	0	1	1	0	1	0
7	1	9	46	4764	9124	0.63787852390669286251	0	1	2032.2970979996171081	0	NaN	NaN	0	1	1	0	1	0
7	1	9	47	65135	3293	0.63792481529526412487	1	1	1170.1680949990986846	0	158	187	1	1	0	1	2	0
7	1	9	48	57855	2821	0.63797110761515796185	0	1	1156.2671659994521178	0	NaN	NaN	0	1	1	0	1	0
7	1	9	49	15148	4095	0.63801740552298724651	0	1	1562.7853509995475179	0	NaN	NaN	0	1	1	0	1	0
7	1	9	50	4637	4751	0.63806369935628026724	1	0	1410.7578130006004358	0	328	NaN	1	0	1	0	1	0
7	1	9	51	22150	2755	0.63810998969711363316	1	1	786.62247700049192645	0	67	NaN	1	1	0	1	2	0
7	1	9	52	5114	7655	0.6381562801543623209	0	1	1058.7434560002293438	0	NaN	NaN	0	1	1	0	1	0
7	1	9	53	72324	3807	0.63820257759653031826	0	1	1183.9051469996775268	0	NaN	NaN	0	1	1	0	1	0
7	1	9	54	65868	3457	0.63824887736700475216	1	1	702.10605499960365705	0	267	353	1	1	0	1	2	0
7	1	9	55	58333	8109	0.63834146491717547178	1	1	1320.9904449995519826	0	115	NaN	1	1	0	1	2	0
7	1	9	56	68367	6054	0.63838775549083948135	0	1	1548.4768559999793069	0	NaN	NaN	0	1	1	0	1	0
7	1	9	57	29494	9508	0.63843405304942280054	0	1	779.59409200047957711	0	NaN	NaN	0	1	1	0	1	0
7	1	9	58	12683	3768	0.63848034734837710857	0	1	821.15672100007941481	0	NaN	NaN	0	1	1	0	1	0
7	1	9	59	32844	6410	0.63852653605863451958	0	1	1119.8068780013272772	0	NaN	NaN	0	1	1	0	1	0
7	1	9	60	13124	2328	0.63857283827383071184	0	1	988.10707499978889246	0	NaN	NaN	0	1	1	0	1	0
7	1	9	61	72324	3807	0.63861913303844630718	1	1	1059.2208109992498066	0	7	NaN	1	1	0	1	2	0
7	1	9	62	8814	7697	0.63866542256437242031	0	1	941.89567000103124883	0	NaN	NaN	0	1	1	0	1	0
7	1	9	63	56805	8816	0.63871171418577432632	0	1	886.82355099990672898	0	NaN	NaN	0	1	1	0	1	0
7	1	10	1	68733	3444	0.64030471269506961107	1	1	1010.8135090013092849	0	314	482	1	1	0	1	2	0
7	1	10	2	29498	7744	0.64035107020754367113	0	1	674.78361299981770571	0	NaN	NaN	0	1	1	0	1	0
7	1	10	3	30933	6106	0.64039729395881295204	1	1	902.52136399976734538	0	107	295	1	1	0	1	2	0
7	1	10	4	65041	1126	0.6404436756856739521	0	1	860.35789800007478334	0	NaN	NaN	0	1	1	0	1	0
7	1	10	5	8091	7339	0.6404898894252255559	0	1	719.21988400026748423	0	NaN	NaN	0	1	1	0	1	0
7	1	10	6	64664	2913	0.64053626346867531538	0	0	1700.2776119988993742	0	NaN	NaN	0	0	0	1	2	0
7	1	10	7	58781	7572	0.64058247068896889687	0	1	1051.0783970003103605	0	NaN	NaN	0	1	1	0	1	0
7	1	10	8	14231	8516	0.64062886114697903395	1	1	1011.3362789998063818	0	202	NaN	1	1	0	1	2	0
7	1	10	9	51198	6139	0.6406750634778290987	0	1	1458.6349789988162229	0	NaN	NaN	0	1	1	0	1	0
7	1	10	10	46086	9261	0.64076765079516917467	0	1	2037.728833998698974	0	NaN	NaN	0	1	1	0	1	0
7	1	10	11	29803	8315	0.64081405207980424166	1	1	835.17574300094565842	0	167	175	1	1	0	1	2	0
7	1	10	12	3627	14	0.64086023718118667603	0	1	1154.4886940009746468	0	NaN	NaN	0	1	1	0	1	0
7	1	10	13	64349	5660	0.64090664882678538561	1	0	1018.9569079993816558	0	178	NaN	1	0	1	0	1	0
7	1	10	14	57662	6692	0.64095281949266791344	1	1	903.62117000040598214	0	143	398	1	1	0	1	2	0
7	1	10	15	62345	4211	0.64099903230089694262	0	1	709.31239199853735045	0	NaN	NaN	0	1	1	0	1	0
7	1	10	16	64599	9571	0.64104531460907310247	0	1	1155.1176299999497132	0	NaN	NaN	0	1	1	0	1	0
7	1	10	17	6722	9570	0.64109161647502332926	0	1	792.2619290002330672	0	NaN	NaN	0	1	1	0	1	0
7	1	10	18	10683	4400	0.64113790832925587893	0	1	1003.1402590011566645	0	NaN	NaN	0	1	1	0	1	0
7	1	10	19	43008	8200	0.64118419669102877378	0	1	829.50441299908561632	0	NaN	NaN	0	1	1	0	1	0
7	1	10	20	35186	5345	0.64123049145564436913	0	1	1134.1679429988289485	0	NaN	NaN	0	1	1	0	1	0
7	1	10	21	18214	4585	0.64132308238185942173	0	1	2109.3254530005651759	0	NaN	NaN	0	1	1	0	1	0
7	1	10	22	64397	5081	0.64136937656439840794	1	1	777.39687000030244235	0	67	324	1	1	0	1	2	0
7	1	10	23	52227	7247	0.64141566632315516472	0	1	687.0826459999079816	0	NaN	NaN	0	1	1	0	1	0
7	1	10	24	38649	5960	0.64146195852663367987	0	1	866.957822001495515	0	NaN	NaN	0	1	1	0	1	0
7	1	10	25	65492	6843	0.64150825503747910261	1	1	903.37363199978426564	0	244	485	1	1	0	1	2	0
7	1	10	26	50591	2726	0.64155455003492534161	0	1	939.97853400105668698	0	NaN	NaN	0	1	1	0	1	0
7	1	10	27	71777	4285	0.64160084712784737349	1	1	1376.5313280000555096	0	141	403	1	1	0	1	2	0
7	1	10	28	36512	7449	0.6416471430566161871	0	0	2134.7586639985820511	0	NaN	NaN	0	0	0	1	2	0
7	1	10	29	11057	3909	0.64169343106914311647	0	1	609.85848600103054196	0	NaN	NaN	0	1	1	0	1	0
7	1	10	30	2287	6194	0.64178602874744683504	0	1	1302.6992190007149475	0	NaN	NaN	0	1	1	0	1	0
7	1	10	31	65479	3376	0.64183231990318745375	1	1	985.29371599943260662	0	484	NaN	1	1	0	1	2	0
7	1	10	32	836	3500	0.64187861094251275063	0	1	1407.495586001459742	0	NaN	NaN	0	1	1	0	1	0
7	1	10	33	44770	6752	0.64192490873392671347	0	1	1054.7328909997304436	0	NaN	NaN	0	1	1	0	1	0
7	1	10	34	60926	4739	0.64197119406890124083	0	1	679.45640499965520576	0	NaN	NaN	0	1	1	0	1	0
7	1	10	35	51911	3456	0.64201749220956116915	0	1	909.09938799995870795	0	NaN	NaN	0	1	1	0	1	0
7	1	10	36	19182	230	0.64206378289964050055	1	1	669.17296599967812654	0	89	164	1	1	0	1	2	0
7	1	10	37	45596	616	0.64211007626727223396	1	1	1423.1549129999621073	0	253	NaN	1	1	0	1	2	0
7	1	10	38	14529	173	0.64215637894812971354	0	1	1109.1143169996939832	0	NaN	NaN	0	1	1	0	1	0
7	1	10	39	39086	2163	0.64220266428310424089	0	1	714.72867299962672405	0	NaN	NaN	0	1	1	0	1	0
7	1	10	40	42525	9008	0.64229515800252556801	0	1	2217.2669679985119728	0	NaN	NaN	0	1	1	0	1	0
7	1	10	41	21916	4465	0.64234145509544759989	0	1	1066.4509649996034568	0	NaN	NaN	0	1	1	0	1	0
7	1	10	42	7051	7198	0.64238774811383336782	0	1	1703.715726000154973	0	NaN	NaN	0	1	1	0	1	0
7	1	10	43	7995	5817	0.64243404055014252663	0	1	804.30042800071532838	0	NaN	NaN	0	1	1	0	1	0
7	1	10	44	42960	6148	0.64248033752664923668	0	1	939.72311099969374482	0	NaN	NaN	0	1	1	0	1	0
7	1	10	45	20808	4356	0.64252662775106728077	0	1	1366.9299480006884551	0	NaN	NaN	0	1	1	0	1	0
7	1	10	46	61449	4186	0.64257292274851351976	1	0	1527.6401810006063897	0	494	NaN	1	0	1	0	1	0
7	1	10	47	14366	1703	0.64261922438163310289	1	0	1202.8813520009862259	0	570	NaN	1	0	1	0	1	0
7	1	10	48	18754	9294	0.64266551053151488304	0	1	782.03010700053710025	0	NaN	NaN	0	1	1	0	1	0
7	1	10	49	25713	6311	0.6427118140272796154	1	1	1027.9169750010623829	0	133	256	1	1	0	1	2	0
7	1	10	50	48675	9492	0.64275810669641941786	0	1	906.05275300003995653	0	NaN	NaN	0	1	1	0	1	0
7	1	10	51	46840	8688	0.64280439214780926704	0	1	927.12349199973687064	0	NaN	NaN	0	1	1	0	1	0
7	1	10	52	26845	3319	0.6428969815606251359	0	1	904.31548199921962805	0	NaN	NaN	0	1	1	0	1	0
7	1	10	53	21587	1769	0.64294328819960355759	0	1	902.87414799968246371	0	NaN	NaN	0	1	1	0	1	0
7	1	10	54	53909	8140	0.64298957213759422302	0	1	1021.0233990001142956	0	NaN	NaN	0	1	1	0	1	0
7	1	10	55	72908	7561	0.64303587179165333509	0	0	1988.7929970009281533	0	NaN	NaN	0	0	0	1	2	0
7	1	10	56	21465	2304	0.64308216935023665428	0	1	764.25142500011133961	0	NaN	NaN	0	1	1	0	1	0
7	1	10	57	65462	2481	0.64312845142558217049	0	1	730.49228600029891822	0	NaN	NaN	0	1	1	0	1	0
7	1	10	58	43436	2880	0.6431747478200122714	1	1	2870.3272319999086903	1	402	NaN	1	1	1	1	2	0
7	1	10	59	16600	2186	0.6432210488710552454	1	1	1388.6028350007109111	0	162	NaN	1	1	0	1	2	0
7	1	10	60	31248	2935	0.64326734165661036968	0	1	1056.1119450012483867	0	NaN	NaN	0	1	1	0	1	0
7	1	10	61	338	5193	0.64331362885423004627	0	1	682.03123500097717624	0	NaN	NaN	0	1	2	0	1	0
7	1	10	62	9918	116	0.64335992455016821623	1	1	816.71573400126362685	0	267	NaN	1	1	0	1	2	0
7	1	11	1	56684	9647	0.64489612355828285217	0	1	857.010969999464578	0	NaN	NaN	0	1	1	0	1	0
7	1	11	2	43469	1791	0.64494242193177342415	0	0	1074.7170159993402194	0	NaN	NaN	0	0	0	1	2	0
7	1	11	3	30034	1407	0.64498870342504233122	0	1	2357.0796059993881499	0	NaN	NaN	0	1	1	0	1	0
7	1	11	4	56043	770	0.64503500587306916714	0	0	1089.8822479994123569	0	NaN	NaN	0	0	0	1	2	0
7	1	11	5	5602	2830	0.64508129958994686604	0	1	710.10071999990032054	0	NaN	NaN	0	1	1	0	1	0
7	1	11	6	16195	2129	0.64512760378420352936	0	1	1481.1085940000339178	0	NaN	NaN	0	1	1	0	1	0
7	1	11	7	42656	2579	0.64517388725653290749	0	1	1774.3527399998129113	0	NaN	NaN	0	1	1	0	1	0
7	1	11	8	3970	3014	0.64522018877323716879	1	1	1316.447679999328102	0	444	540	1	1	0	1	2	0
7	1	11	9	34239	459	0.6452664682874456048	0	1	2390.8978389990807045	0	NaN	NaN	0	1	1	0	1	0
7	1	11	10	67191	2642	0.64531276887282729149	0	1	1179.6276850000140257	0	NaN	NaN	0	1	1	0	1	0
7	1	11	11	6911	8996	0.64535905828233808279	0	1	924.50466700029210187	0	NaN	NaN	0	1	1	0	1	0
7	1	11	12	68838	5745	0.64540537027642130852	1	1	855.27510000065376516	0	114	NaN	1	1	0	1	2	0
7	1	11	13	12740	3410	0.64549796085339039564	0	1	861.69923899979039561	0	NaN	NaN	0	1	1	0	1	0
7	1	11	14	62350	8116	0.64554432465229183435	0	1	1310.1184859988279641	0	NaN	NaN	0	1	1	0	1	0
7	1	11	15	9545	5733	0.6455906375776976347	1	1	2065.6803580004634568	0	114	NaN	1	1	0	1	2	0
7	1	11	16	9140	3951	0.64563691546209156513	1	1	926.83643800046411343	0	100	392	1	1	0	1	2	0
7	1	11	17	66588	1482	0.64568323304411023855	0	1	563.75782699979026802	0	NaN	NaN	0	1	1	0	1	0
7	1	11	18	43618	4599	0.64572951348964124918	0	1	1156.933837000906351	0	NaN	NaN	0	1	1	0	1	0
7	1	11	19	30871	4040	0.64577582594938576221	0	1	1224.5299340011115419	0	NaN	NaN	0	1	1	0	1	0
7	1	11	20	39623	4982	0.64582211303059011698	0	1	2451.416859999881126	0	NaN	NaN	0	1	1	0	1	0
7	1	11	21	5432	8474	0.64586829929612576962	0	1	785.22690700083330739	0	NaN	NaN	0	1	2	0	1	0
7	1	11	22	1661	9657	0.64591458544600754976	1	1	848.88137500092852861	0	321	NaN	1	1	0	1	2	0
7	1	11	23	57695	6168	0.64600718265864998102	0	1	924.24519300038809888	0	NaN	NaN	0	1	1	0	1	0
7	1	11	24	67586	6537	0.64605338382534682751	0	1	2055.3452620006282814	0	NaN	NaN	0	1	1	0	1	0
7	1	11	25	4476	4759	0.64609967113938182592	0	1	802.85163500047929119	0	NaN	NaN	0	1	1	0	1	0
7	1	11	26	66973	5514	0.64614596974570304155	1	0	718.59160900021379348	0	171	NaN	1	0	1	0	1	0
7	1	11	27	57934	4620	0.64619226846843957901	0	1	647.80809100011538249	0	NaN	NaN	0	1	1	0	1	0
7	1	11	28	50167	7333	0.64623856067191809416	0	1	681.98380000103497878	0	NaN	NaN	0	1	1	0	1	0
7	1	11	29	46355	1069	0.6462848541559651494	0	1	816.02281300001777709	0	NaN	NaN	0	1	1	0	1	0
7	1	11	30	22070	1218	0.64633114088792353868	0	1	959.39461399939318653	0	NaN	NaN	0	1	1	0	1	0
7	1	11	31	63752	1512	0.64637743798084557056	0	1	1002.5980710015574005	0	NaN	NaN	0	1	1	0	1	0
7	1	11	32	43618	4599	0.64642373169772326946	1	1	733.13223100012692157	0	13	NaN	1	1	0	1	2	0
7	1	11	33	14936	1040	0.64647003193385899067	0	1	1332.9218899998522829	0	NaN	NaN	0	1	1	0	1	0
7	1	11	34	47474	1624	0.64651632087770849466	1	1	961.73407700007373933	0	139	NaN	1	1	0	1	2	0
7	1	11	35	45006	1808	0.64660890493541955948	1	1	973.93046900106128305	0	333	NaN	1	1	0	1	2	0
7	1	11	36	62157	4690	0.64665519481059163809	0	1	767.61362000070221256	0	NaN	NaN	0	1	1	0	1	0
7	1	11	37	34448	5019	0.64670148934237658978	0	1	766.67439899938472081	0	NaN	NaN	0	1	1	0	1	0
7	1	11	38	23783	5219	0.64674778853077441454	0	1	983.38205099935294129	0	NaN	NaN	0	1	1	0	1	0
7	1	11	39	64186	9102	0.64679408632218837738	0	1	1463.2487599992600735	0	NaN	NaN	0	1	1	0	1	0
7	1	11	40	1208	9621	0.64684037619736045599	1	1	1865.1360090007074177	0	547	NaN	1	1	0	1	2	0
7	1	11	41	55240	5874	0.646886679925955832	0	1	702.82593599949905183	0	NaN	NaN	0	1	1	0	1	0
7	1	11	42	14122	169	0.64693296072073280811	0	1	684.10729199968045577	0	NaN	NaN	0	1	1	0	1	0
7	1	11	43	40561	9088	0.6469792630523443222	1	0	883.81755600130418316	0	122	NaN	1	0	1	0	1	0
7	1	11	44	8788	4637	0.64707185036968439817	0	1	1235.9804180014180019	0	NaN	NaN	0	1	1	0	1	0
7	1	11	45	12623	4522	0.647118145483545959	0	1	773.57679200031270739	0	NaN	NaN	0	1	1	0	1	0
7	1	11	46	26414	7224	0.64716443861834704876	0	1	1464.6610489999147831	0	NaN	NaN	0	1	1	0	1	0
7	1	11	47	38031	3822	0.6472107333829626441	0	1	1101.6429720002633985	0	NaN	NaN	0	1	1	0	1	0
7	1	11	48	40107	6407	0.64725703152362257242	0	1	610.34347600070759654	0	NaN	NaN	0	1	1	0	1	0
7	1	11	49	23269	8393	0.64730331744067370892	0	1	1301.3686369995411951	0	NaN	NaN	0	1	1	0	1	0
7	1	11	50	62350	8116	0.64734952209983021021	1	1	725.76846199990541209	0	35	NaN	1	1	0	1	2	0
7	1	11	51	41228	2044	0.64739581313915550709	0	1	773.28922100059571676	0	NaN	NaN	0	1	1	0	1	0
7	1	11	52	69842	3862	0.6474421090679243207	1	1	1830.6149949985410785	0	247	NaN	1	1	0	1	2	0
7	1	11	53	34612	8019	0.6474883967312052846	0	1	1106.3048140003957087	0	NaN	NaN	0	1	1	0	1	0
7	1	11	54	30034	1407	0.64758098963648080826	1	1	1382.0096560011734255	0	50	NaN	1	1	0	1	2	0
7	1	11	55	12911	7367	0.64762728149071335793	1	0	2445.8684219989663688	0	589	NaN	1	0	1	0	1	0
7	1	11	56	34202	8706	0.64767357264645397663	0	1	1035.222290000092471	0	NaN	NaN	0	1	1	0	1	0
7	1	11	57	62257	2753	0.6477198675274848938	0	1	1303.7275369988492457	0	NaN	NaN	0	1	1	0	1	0
7	1	11	58	5467	3802	0.64776616136077791452	0	1	672.63699900104256812	0	NaN	NaN	0	1	1	0	1	0
7	1	11	59	1661	9657	0.64781245624180883169	1	1	838.13771200038900133	0	36	358	1	1	0	1	2	0
7	1	11	60	71380	5714	0.64785875019151717424	1	1	1031.48768199935148	0	191	390	1	1	0	1	2	0
7	1	11	61	26352	347	0.64790504705160856247	0	1	966.22002699950826354	0	NaN	NaN	0	1	1	0	1	0
7	1	11	62	12623	4522	0.64795134321320801973	1	1	756.78687300023739226	0	16	NaN	1	1	0	1	2	0
7	1	11	63	62870	5102	0.64799763623159378767	0	1	1562.7403790003882023	0	NaN	NaN	0	1	1	0	1	0
7	1	12	1	21965	1122	0.64953083300497382879	0	1	1575.3860979984892765	0	NaN	NaN	0	1	1	0	1	0
7	1	12	2	4787	36	0.64957712404429912567	1	0	919.61057899970910512	0	286	NaN	1	0	1	0	1	0
7	1	12	3	2455	5273	0.64962342171929776669	0	1	708.58112200039613526	0	NaN	NaN	0	1	1	0	1	0
7	1	12	4	16055	9335	0.64966972172260284424	1	1	951.1255010002059862	0	269	NaN	1	1	0	1	2	0
7	1	12	5	12740	3410	0.64971600845456123352	1	1	762.92909000039799139	0	54	NaN	1	1	0	1	2	0
7	1	12	6	7887	5670	0.64976230484899133444	0	1	790.22016399903804995	0	NaN	NaN	0	1	2	0	1	0
7	1	12	7	25187	5449	0.64980850217398256063	0	0	963.59911000035936013	0	NaN	NaN	0	0	0	1	2	0
7	1	12	8	37554	4580	0.64985479856841266155	0	1	1054.1951710001740139	0	NaN	NaN	0	1	1	0	1	0
7	1	12	9	48440	1994	0.64990109018981456757	0	1	970.4625869999290444	0	NaN	NaN	0	1	1	0	1	0
7	1	12	10	56138	1386	0.649947380181401968	0	1	1337.694331999955466	0	NaN	NaN	0	1	1	0	1	0
7	1	12	11	11894	9828	0.64999367250129580498	0	0	591.91815199847042095	0	NaN	NaN	0	0	0	1	2	0
7	1	12	12	13143	9484	0.65003997622989118099	1	1	977.79546899982960895	0	371	NaN	1	1	0	1	2	0
7	1	12	13	25962	1490	0.65008625865448266268	0	1	1003.1717860001663212	0	NaN	NaN	0	1	1	0	1	0
7	1	12	14	11160	131	0.65017885412089526653	0	1	942.53797200144617818	0	NaN	NaN	0	1	1	0	1	0
7	1	12	15	53404	5518	0.65022514353040605783	0	1	609.48957999971753452	0	NaN	NaN	0	1	1	0	1	0
7	1	12	16	60162	1103	0.65027144341729581356	0	1	1646.1710669991589384	0	NaN	NaN	0	1	1	0	1	0
7	1	12	17	31858	5354	0.6503177369013428688	0	0	1771.5887190006469609	0	NaN	NaN	0	0	0	1	2	0
7	1	12	18	21872	8405	0.65036403038538992405	0	1	815.80254700020304881	0	NaN	NaN	0	1	1	0	1	0
7	1	12	19	41986	4272	0.65041031513828784227	0	1	1025.1674629998888122	0	NaN	NaN	0	1	1	0	1	0
7	1	12	20	68290	9513	0.65045661607291549444	0	1	1202.5128039986157091	0	NaN	NaN	0	1	1	0	1	0
7	1	12	21	11815	7408	0.65050291025545448065	0	1	904.14012700057355687	0	NaN	NaN	0	1	1	0	1	0
7	1	12	22	64664	2913	0.65054920397233217955	1	0	2672.1397130004334031	0	140	NaN	1	0	1	0	1	0
7	1	12	23	24902	1834	0.65059550164733082056	0	0	1103.9583689998835325	0	NaN	NaN	0	0	0	1	2	0
7	1	12	24	30947	7141	0.6506880871020257473	0	1	1002.3226100001920713	0	NaN	NaN	0	1	1	0	1	0
7	1	12	25	45932	1784	0.65073438349645584822	0	0	2542.7656589999969583	0	NaN	NaN	0	0	0	1	2	0
7	1	12	26	56695	3880	0.65078067849390208721	0	1	676.42082400016079191	0	NaN	NaN	0	1	1	0	1	0
7	1	12	27	30034	1407	0.6508269760524854064	1	1	875.46484100130328443	0	35	86	1	1	0	1	2	0
7	1	12	28	59714	5778	0.65087326569482684135	0	1	826.8811820016708225	0	NaN	NaN	0	1	1	0	1	0
7	1	12	29	38341	5306	0.65091956080868840218	0	1	903.21009900071658194	0	NaN	NaN	0	1	1	0	1	0
7	1	12	30	9197	6677	0.6509658468421548605	0	1	1028.4863840006437385	0	NaN	NaN	0	1	1	0	1	0
7	1	12	31	2977	6378	0.65101214381866157055	0	1	933.34563099961087573	0	NaN	NaN	0	1	1	0	1	0
7	1	12	32	38655	2451	0.65105844067875295877	1	1	1086.9421500010503223	0	305	NaN	1	1	0	1	2	0
7	1	12	33	38031	3822	0.65110464161261916161	1	1	2065.9083819991792552	0	48	NaN	1	1	0	1	2	0
7	1	12	34	33883	5870	0.65119722089730203152	0	1	884.85291299912205432	0	NaN	NaN	0	1	1	0	1	0
7	1	12	35	34847	2567	0.65124352078419178724	0	1	2239.2433690001780633	0	NaN	NaN	0	1	1	0	1	0
7	1	12	36	64386	1446	0.6512898151995614171	0	1	1106.7963090008561267	0	NaN	NaN	0	1	1	0	1	0
7	1	12	37	14529	173	0.6513361046090722084	1	1	1686.1022670000238577	0	123	NaN	1	1	0	1	2	0
7	1	12	38	19156	5360	0.65138239844236522913	0	1	3206.9978939998691203	0	NaN	NaN	0	1	1	0	1	0
7	1	12	39	57695	6168	0.65142870030831545591	1	1	1476.7058750003343448	0	78	NaN	1	1	0	1	2	0
7	1	12	40	43618	4599	0.65147499390877783298	1	1	686.72944199897756334	0	70	84	1	1	0	1	2	0
7	1	12	41	3038	4614	0.65152128227055072784	0	0	1845.2212870015500812	0	NaN	NaN	0	0	0	1	2	0
7	1	12	42	22252	8417	0.65156757412478327751	0	1	727.85529599968867842	0	NaN	NaN	0	1	1	0	1	0
7	1	12	43	53338	2034	0.65166016947478055954	0	1	805.07267800021509174	0	NaN	NaN	0	1	1	0	1	0
7	1	12	44	29838	398	0.65170645969919860363	0	1	1973.1781659993430367	0	NaN	NaN	0	1	1	0	1	0
7	1	12	45	31249	8629	0.65175274934154003859	0	1	2885.7456850000744453	0	NaN	NaN	0	1	1	0	1	0
7	1	12	46	65768	1411	0.65179905504919588566	0	1	776.34254700024030171	0	NaN	NaN	0	1	1	0	1	0
7	1	12	47	30990	2152	0.65184534166473895311	0	1	1050.0884819994098507	0	NaN	NaN	0	1	1	0	1	0
7	1	12	48	29102	6858	0.65189163212198764086	0	1	881.01170600020850543	0	NaN	NaN	0	1	1	0	1	0
7	1	12	49	20732	9391	0.65193793061189353466	0	1	1623.2197320005070651	0	NaN	NaN	0	1	1	0	1	0
7	1	12	50	31858	5354	0.65198423014953732491	1	1	1044.6459020004112972	0	32	NaN	1	1	0	1	2	0
7	1	12	51	58145	805	0.65203052409924566746	1	1	1175.231855000674841	0	240	NaN	1	1	0	1	2	0
7	1	12	52	60193	4665	0.65212311374489217997	0	1	1163.1405520001862897	0	NaN	NaN	0	1	1	0	1	0
7	1	12	53	72908	7561	0.65216940722893923521	1	0	2128.9473969991377089	0	122	NaN	1	0	1	0	1	0
7	1	12	54	24627	8160	0.65221569244749844074	0	1	1216.2327170008211397	0	NaN	NaN	0	1	1	0	1	0
7	1	12	55	18682	2161	0.65226198895834386349	0	1	884.32243799979914911	0	NaN	NaN	0	1	1	0	1	0
7	1	12	56	23660	7903	0.65230819408316165209	0	1	1539.373145998979453	0	NaN	NaN	0	1	1	0	1	0
7	1	12	57	55659	7560	0.652354478370398283	0	1	1209.0994480004155776	0	NaN	NaN	0	1	1	0	1	0
7	1	12	58	31669	2370	0.65240077930502593517	0	0	1161.3823039988346864	0	NaN	NaN	0	0	0	1	2	0
7	1	12	59	51258	2563	0.65244706731755286455	0	1	1185.1658089999546064	0	NaN	NaN	0	1	1	0	1	0
7	1	12	60	48682	670	0.65249336999841034412	0	1	1217.6240749995486112	0	NaN	NaN	0	1	1	0	1	0
7	1	12	61	5912	9409	0.65253965673036873341	0	1	1691.1850670003332198	0	NaN	NaN	0	1	1	0	1	0
7	1	12	62	56802	9681	0.65258595696650445461	0	1	722.66218599907006137	0	NaN	NaN	0	1	1	0	1	0
7	2	1	1	17610	8819	7.5883352442178875208	0	1	775.62395000131800771	0	NaN	NaN	0	1	1	0	1	0
7	2	1	2	66180	2972	7.5883815418928861618	0	1	692.21055498928762972	0	NaN	NaN	0	1	1	0	1	0
7	2	1	3	14595	175	7.5884278437588363886	0	1	502.03951999719720334	0	NaN	NaN	0	1	1	0	1	0
7	2	1	4	5274	6169	7.5884741400368511677	1	1	1641.4784249936928973	0	219	NaN	0	0	0	1	2	0
7	2	1	5	30524	1591	7.5885204208316281438	0	1	639.14876000490039587	0	NaN	NaN	0	1	1	0	1	0
7	2	1	6	12889	4692	7.5885667181573808193	0	1	650.80902700719889253	0	NaN	NaN	0	1	1	0	1	0
7	2	1	7	20899	4152	7.5886130089638754725	0	1	1540.6758679891936481	0	NaN	NaN	0	1	1	0	1	0
7	2	1	8	42891	7167	7.5886593010509386659	0	1	1277.1595439990051091	0	NaN	NaN	0	1	1	0	1	0
7	2	1	9	21916	4465	7.5887056064093485475	1	0	1575.8616980019723997	0	154	NaN	0	1	1	0	1	0
7	2	1	10	58133	5313	7.588751894305460155	0	1	1587.1705269964877516	0	NaN	NaN	0	1	2	0	1	0
7	2	1	11	24481	305	7.5887981938431039453	0	1	1216.9834730011643842	0	NaN	NaN	0	1	1	0	1	0
7	2	1	12	49372	9575	7.5888444877928122878	1	1	2232.6648500020382926	1	346	NaN	0	0	1	1	2	0
7	2	1	13	36975	487	7.5888907810440286994	0	1	679.2106649954803288	0	NaN	NaN	0	1	1	0	1	0
7	2	1	14	5444	3997	7.5889370772056281567	0	1	962.75903700734488666	0	NaN	NaN	0	1	1	0	1	0
7	2	1	15	49675	7390	7.589029559982009232	1	0	827.50300400948617607	0	233	NaN	0	1	1	0	1	0
7	2	1	16	62308	1277	7.5890758605673909187	0	1	855.77479400672018528	0	NaN	NaN	0	1	1	0	1	0
7	2	1	17	40610	2195	7.5891221507918089628	0	1	1915.0290719990152866	0	NaN	NaN	0	1	1	0	1	0
7	2	1	18	60070	5101	7.589168442296795547	0	1	949.447629987844266	0	NaN	NaN	0	1	1	0	1	0
7	2	1	19	62776	1826	7.5892147395061329007	0	1	1866.2500849895877764	0	NaN	NaN	0	1	1	0	1	0
7	2	1	20	30524	1591	7.589261032990179956	1	1	816.56152900541201234	0	14	NaN	1	1	0	1	2	0
7	2	1	21	41379	2080	7.5893073264742270112	0	1	1174.6038130077067763	0	NaN	NaN	0	1	1	0	1	0
7	2	1	22	22722	3804	7.5893536261282861233	0	1	663.32780300581362098	0	NaN	NaN	0	1	1	0	1	0
7	2	1	23	1678	2773	7.5893999200779944658	0	1	1006.8532839941326529	0	NaN	NaN	0	1	1	0	1	0
7	2	1	24	35186	5345	7.5894925001775845885	1	0	1234.7534790023928508	0	190	NaN	0	1	1	0	1	0
7	2	1	25	56210	7130	7.5895387951750308275	1	1	1033.350249010254629	0	336	497	0	0	0	1	2	0
7	2	1	26	71692	3770	7.589585090521723032	1	0	643.43654400727245957	0	646	NaN	0	1	1	0	1	0
7	2	1	27	56138	1386	7.5896313902921974659	1	0	2102.8673590044490993	0	78	NaN	0	1	1	0	1	0
7	2	1	28	71350	9317	7.589677683194167912	0	1	860.66317500080913305	0	NaN	NaN	0	1	1	0	1	0
7	2	1	29	12789	8105	7.5897239719051867723	0	1	965.02938600315246731	0	NaN	NaN	0	1	1	0	1	0
7	2	1	30	27346	8280	7.5897702729562297463	1	0	626.78839999716728926	0	413	NaN	0	1	1	0	1	0
7	2	1	31	36911	485	7.5898165673715993762	0	1	667.07549399870913476	0	NaN	NaN	0	1	1	0	1	0
7	2	1	32	16703	200	7.5898628538707271218	0	1	1103.432303003501147	0	NaN	NaN	0	1	1	0	1	0
7	2	1	33	44607	9130	7.5899091553874313831	0	0	1743.9738230023067445	0	NaN	NaN	0	0	0	1	2	0
7	2	1	34	35613	2587	7.5899554488714784384	0	1	705.60719601053278893	0	NaN	NaN	0	1	1	0	1	0
7	2	1	35	19209	2904	7.5900017436360940337	0	1	1372.7271950046997517	0	NaN	NaN	0	1	1	0	1	0
7	2	1	36	59519	4239	7.5900943330489099026	0	1	1320.266370996250771	0	NaN	NaN	0	1	1	0	1	0
7	2	1	37	33954	8001	7.5901406286284327507	0	1	917.37181499775033444	0	NaN	NaN	0	1	1	0	1	0
7	2	1	38	18345	3312	7.5901869123335927725	0	1	1156.1557809909572825	0	NaN	NaN	0	1	1	0	1	0
7	2	1	39	44846	6903	7.5902332140831276774	0	1	1118.1289020023541525	0	NaN	NaN	0	1	1	0	1	0
7	2	1	40	58133	5313	7.5902794047724455595	1	1	822.7956640039337799	0	29	NaN	1	1	0	1	2	0
7	2	1	41	5748	5567	7.5903257067548111081	0	1	1253.8678990094922483	0	NaN	NaN	0	1	1	0	1	0
7	2	1	42	1101	9012	7.590372000471688807	0	1	1702.5696670025354251	0	NaN	NaN	0	1	1	0	1	0
7	2	1	43	36623	5208	7.5904182943049818277	0	1	862.57037399627733976	0	NaN	NaN	0	1	1	0	1	0
7	2	1	44	38636	3475	7.59046458441298455	0	1	967.28708900627680123	0	NaN	NaN	0	1	1	0	1	0
7	2	1	45	3209	2336	7.5905108845327049494	1	1	1170.7261120027396828	0	366	433	0	0	0	1	2	0
7	2	1	46	42525	9008	7.5906034657964482903	1	0	856.98259899800177664	0	192	NaN	0	1	1	0	1	0
7	2	1	47	53162	7974	7.5906497648684307933	1	1	1326.3069679960608482	0	333	539	0	0	0	1	2	0
7	2	1	48	26082	8441	7.5906960555585101247	1	0	1670.0891979999141768	0	582	NaN	0	1	1	0	1	0
7	2	1	49	5603	53	7.5907423509052023292	1	0	629.790948994923383	0	565	NaN	0	1	1	0	1	0
7	2	1	50	3627	14	7.5907886428758502007	1	1	961.44147399172652513	0	224	NaN	0	0	0	1	2	0
7	2	1	51	20631	2255	7.5908349391538649797	1	0	1170.8321659971261397	0	256	NaN	0	1	1	0	1	0
7	2	1	52	1107	4096	7.5908812348498031497	0	1	1068.9569270034553483	0	NaN	NaN	0	1	1	0	1	0
7	2	1	53	61749	848	7.590927520883269608	0	1	646.13226799701806158	0	NaN	NaN	0	1	1	0	1	0
7	2	1	54	17648	4139	7.5909738235641270876	0	0	1084.1842859954340383	0	NaN	NaN	0	0	0	1	2	0
7	2	1	55	45731	9969	7.5910664111142978072	0	1	771.2091680004959926	0	NaN	NaN	0	1	1	0	1	0
7	2	1	56	4496	5604	7.5911127045983448625	0	1	1411.8444280029507354	0	NaN	NaN	0	1	1	0	1	0
7	2	1	57	1094	5629	7.5911589995957911015	0	1	805.04092200135346502	0	NaN	NaN	0	1	1	0	1	0
7	2	1	58	10835	5555	7.5912052869098260999	0	1	1311.3488959934329614	0	NaN	NaN	0	1	1	0	1	0
7	2	1	59	8007	86	7.5912515890086069703	0	1	1286.3392770086647943	0	NaN	NaN	0	1	1	0	1	0
7	2	1	60	36925	7292	7.5912978772539645433	0	1	757.13099399581551552	0	NaN	NaN	0	1	1	0	1	0
7	2	1	61	71960	2391	7.5913441764423623681	0	1	692.75933899916708469	0	NaN	NaN	0	1	1	0	1	0
7	2	1	62	35072	1282	7.5913904689950868487	0	1	741.99783999938517809	0	NaN	NaN	0	1	1	0	1	0
7	2	1	63	30990	2152	7.5914366658544167876	1	0	829.22705299279186875	0	77	NaN	0	1	1	0	1	0
7	2	2	1	56819	7785	7.5932428005617111921	0	1	759.98495999374426901	0	NaN	NaN	0	1	1	0	1	0
7	2	2	2	32293	4946	7.5932891592383384705	0	0	1350.7929530023830011	0	NaN	NaN	0	0	0	1	2	0
7	2	2	3	48134	6483	7.5933353799628093839	0	1	911.64412799116689712	0	NaN	NaN	0	1	1	0	1	0
7	2	2	4	49100	1436	7.5933817552868276834	0	1	807.93429799086879939	0	NaN	NaN	0	1	1	0	1	0
7	2	2	5	13789	6808	7.5934279734501615167	0	1	851.06226700008846819	0	NaN	NaN	0	1	1	0	1	0
7	2	2	6	56661	6129	7.5934743531979620457	0	1	1295.4042189958272502	0	NaN	NaN	0	1	1	0	1	0
7	2	2	7	2683	3625	7.5935205619316548109	0	1	2840.21183499135077	1	NaN	NaN	0	1	1	1	1	0
7	2	2	8	54438	4127	7.5935669480822980404	0	1	1238.5438229975989088	0	NaN	NaN	0	1	1	0	1	0
7	2	2	9	4787	36	7.5936131434282287955	1	0	1054.3436129955807701	0	131	418	0	1	1	0	1	0
7	2	2	10	2683	3625	7.5936595428502187133	1	1	793.5915150010259822	0	2	NaN	1	1	0	1	2	0
7	2	2	11	10423	8509	7.5937521400628611445	0	0	1577.5318960077129304	0	NaN	NaN	0	0	0	1	2	0
7	2	2	12	62454	7629	7.5937983280746266246	0	1	672.62008899706415832	0	NaN	NaN	0	1	1	0	1	0
7	2	2	13	22070	1218	7.5938447357621043921	1	1	975.11268100060988218	0	170	NaN	0	0	0	1	2	0
7	2	2	14	32844	6410	7.5938909158576279879	1	0	702.47336100146640092	0	267	NaN	0	1	1	0	1	0
7	2	2	15	13139	159	7.5939373241271823645	0	1	1106.047296998440288	0	NaN	NaN	0	1	1	0	1	0
7	2	2	16	36911	485	7.5939835044555366039	1	1	1566.6767300135688856	1	47	NaN	1	1	1	1	2	0
7	2	2	17	65259	3127	7.5940297071356326342	0	0	1510.085621994221583	0	NaN	NaN	0	0	0	1	2	0
7	2	2	18	31389	9744	7.5940759952645748854	0	1	534.64872100448701531	0	NaN	NaN	0	1	1	0	1	0
7	2	2	19	5303	3412	7.5941222897963598371	0	1	929.98079699464142323	0	NaN	NaN	0	1	1	0	1	0
7	2	2	20	68106	9461	7.5941685867728665471	0	1	938.18824201298411936	0	NaN	NaN	0	1	1	0	1	0
7	2	2	21	57934	4620	7.5942611696664243937	1	0	631.66528299916535616	0	181	NaN	0	1	1	0	1	0
7	2	2	22	60301	4250	7.5943074659444391727	0	1	1029.7101399919483811	0	NaN	NaN	0	1	1	0	1	0
7	2	2	23	56805	8816	7.5943537611747160554	1	0	829.93368999450467527	0	272	NaN	0	1	1	0	1	0
7	2	2	24	35613	2587	7.5944000487215816975	1	1	1005.8135559957008809	0	52	NaN	1	1	0	1	2	0
7	2	2	25	19155	7627	7.5944463410414755344	0	1	1528.7610830127960071	0	NaN	NaN	0	1	1	0	1	0
7	2	2	26	25455	327	7.5944926453521475196	0	1	967.01358800055459142	0	NaN	NaN	0	1	1	0	1	0
7	2	2	27	39032	7054	7.5945389352273195982	0	1	901.82705299230292439	0	NaN	NaN	0	1	1	0	1	0
7	2	2	28	66657	6637	7.5945852251024916768	0	1	737.37865900329779834	0	NaN	NaN	0	1	1	0	1	0
7	2	2	29	1314	4945	7.5946315217297524214	0	1	1067.9601149895461276	0	NaN	NaN	0	1	1	0	1	0
7	2	2	30	14392	3524	7.5946778199868276715	0	1	803.9345360011793673	0	NaN	NaN	0	1	1	0	1	0
7	2	2	31	16211	8854	7.5947241097455844283	0	1	904.41966798971407115	0	NaN	NaN	0	1	1	0	1	0
7	2	2	32	38031	3822	7.5947704074205830693	1	1	2564.4705929880728945	1	123	172	0	0	1	1	2	0
7	2	2	33	14529	173	7.5948167017195373774	1	1	969.45156199217308313	0	120	244	0	0	0	1	2	0
7	2	2	34	11044	3975	7.5949092818191275001	0	1	1175.1554190122988075	0	NaN	NaN	0	1	1	0	1	0
7	2	2	35	25459	8077	7.594955584267154336	0	1	1150.2100099896779284	0	NaN	NaN	0	1	1	0	1	0
7	2	2	36	71512	3935	7.5950018782168626785	0	1	639.98716500645969063	0	NaN	NaN	0	1	1	0	1	0
7	2	2	37	36623	5208	7.5950481719337403774	1	1	824.34945000568404794	0	56	NaN	1	1	0	1	2	0
7	2	2	38	30560	3179	7.5950944663491100073	0	1	829.13063799787778407	0	NaN	NaN	0	1	1	0	1	0
7	2	2	39	51836	1189	7.5951407577376812696	0	1	1346.4613800024380907	0	NaN	NaN	0	1	1	0	1	0
7	2	2	40	4779	8403	7.5951870549470186234	0	1	1053.3534490095917135	0	NaN	NaN	0	1	1	0	1	0
7	2	2	41	72208	1776	7.5952333488967269659	0	1	1164.2633799929171801	0	NaN	NaN	0	1	1	0	1	0
7	2	2	42	54623	4187	7.5952796459896489978	0	1	1392.8889739909209311	0	NaN	NaN	0	1	1	0	1	0
7	2	2	43	72707	3769	7.595325840637087822	0	1	1308.993013997678645	0	NaN	NaN	0	1	1	0	1	0
7	2	2	44	10370	4812	7.5954184290021657944	0	1	1003.5400400083744898	0	NaN	NaN	0	1	1	0	1	0
7	2	2	45	37029	6635	7.5954647248145192862	0	1	963.93087900651153177	0	NaN	NaN	0	1	1	0	1	0
7	2	2	46	25962	1490	7.5955110137583687901	1	0	1165.7933270034845918	0	157	NaN	0	1	1	0	1	0
7	2	2	47	64599	9571	7.5955573123646900058	1	0	821.41213999420870095	0	280	NaN	0	1	1	0	1	0
7	2	2	48	56138	1386	7.5956035974668338895	1	1	802.92515999462921172	0	83	162	1	1	0	1	2	0
7	2	2	49	68883	5896	7.5956499013118445873	1	0	865.07944899494759738	0	331	NaN	0	1	1	0	1	0
7	2	2	50	38186	3371	7.5956961861811578274	0	1	933.55419499857816845	0	NaN	NaN	0	1	1	0	1	0
7	2	2	51	1648	8303	7.59574248141143471	0	0	1468.499612994492054	0	NaN	NaN	0	0	0	1	2	0
7	2	2	52	65123	8258	7.5957887849071994424	0	1	883.43762900331057608	0	NaN	NaN	0	1	1	0	1	0
7	2	2	53	42411	2854	7.5958350698929280043	0	1	951.2215659924549982	0	NaN	NaN	0	1	1	0	1	0
7	2	2	54	68838	5745	7.595927664777263999	1	1	2009.3329679948510602	0	229	344	0	0	0	1	2	0
7	2	2	55	62905	8175	7.5959739551180973649	1	0	704.04476999829057604	0	449	NaN	0	1	1	0	1	0
7	2	2	56	10088	6851	7.5960202469723299146	0	1	1584.6878150041447952	0	NaN	NaN	0	1	1	0	1	0
7	2	2	57	9231	108	7.5960665474412962794	0	1	971.15195100195705891	0	NaN	NaN	0	1	1	0	1	0
7	2	2	58	14595	175	7.5961128403432667255	1	1	825.7487280061468482	0	117	NaN	1	1	0	1	2	0
7	2	2	59	10088	6851	7.5961591381346806884	1	1	802.71643899322953075	0	2	NaN	1	1	0	1	2	0
7	2	2	60	1648	8303	7.5962054294068366289	1	1	728.21209000539965928	0	8	NaN	1	1	0	1	2	0
7	2	2	61	7048	3663	7.596251723007299006	0	1	1216.3222050003241748	0	NaN	NaN	0	1	1	0	1	0
7	2	2	62	62776	1826	7.5962980141630396247	1	1	1683.2710460002999753	0	105	NaN	1	1	0	2	2	0
7	2	3	1	61749	848	7.5978457692544907331	1	0	762.75978700141422451	0	72	NaN	1	0	1	0	1	0
7	2	3	2	24366	1143	7.5978920647175982594	0	1	711.98523099883459508	0	NaN	NaN	0	1	1	0	1	0
7	2	3	3	51772	2020	7.5979383551748469472	0	1	726.49548099434468895	0	NaN	NaN	0	1	1	0	1	0
7	2	3	4	54717	3783	7.5979846513364464045	0	1	759.39027000276837498	0	NaN	NaN	0	1	1	0	1	0
7	2	3	5	10370	4812	7.5980309467995539308	1	1	858.25270999339409173	0	22	NaN	1	1	0	1	2	0
7	2	3	6	9049	106	7.5980772378388792276	0	1	1001.9840280001517385	0	NaN	NaN	0	1	1	0	1	0
7	2	3	7	3721	4361	7.5981235289946198463	0	0	924.97387099137995392	0	NaN	NaN	0	0	0	1	2	0
7	2	3	8	71383	1626	7.5981698241084814072	0	1	902.81666800728999078	0	NaN	NaN	0	1	1	0	1	0
7	2	3	9	35236	3996	7.5982161236461251974	1	0	1047.1843010018346831	0	568	NaN	0	1	1	0	1	0
7	2	3	10	2556	4292	7.5982624085154384375	0	1	943.59815400093793869	0	NaN	NaN	0	1	1	0	1	0
7	2	3	11	34202	8706	7.5983550010714679956	1	1	2129.9711379979271442	1	204	NaN	0	0	1	1	2	0
7	2	3	12	69507	1420	7.5984012976987287402	0	1	880.97585701325442642	0	NaN	NaN	0	1	1	0	1	0
7	2	3	13	49597	9893	7.5984475903678685427	0	1	1128.2889590074773878	0	NaN	NaN	0	1	1	0	1	0
7	2	3	14	26593	7841	7.5984938848996534944	0	1	682.77257299632765353	0	NaN	NaN	0	1	1	0	1	0
7	2	3	15	40859	1803	7.5985401844372972846	0	1	1251.9322049920447171	0	NaN	NaN	0	1	1	0	1	0
7	2	3	16	14936	1040	7.5985864675603806973	1	0	1138.5059399908641353	0	232	NaN	0	1	1	0	1	0
7	2	3	17	68291	3284	7.5986327662831172347	1	0	1168.1421149987727404	0	761	NaN	0	1	1	0	1	0
7	2	3	18	59196	1498	7.5986790630267933011	0	1	1087.8596659895265475	0	NaN	NaN	0	1	1	0	1	0
7	2	3	19	53876	2485	7.5987253511557355523	0	1	1402.6019629964139313	0	NaN	NaN	0	1	1	0	1	0
7	2	3	20	42525	9008	7.598817946738563478	1	0	1301.6703639877960086	0	98	291	1	0	1	0	1	0
7	2	3	21	13143	9484	7.5988642347510904074	1	1	1535.457193007459864	0	195	567	0	0	0	1	2	0
7	2	3	22	48440	1994	7.5989105348708108068	1	0	1003.5112339974148199	0	199	NaN	0	1	1	0	1	0
7	2	3	23	46000	625	7.598956819623708725	0	0	2386.9164669886231422	0	NaN	NaN	0	0	0	1	2	0
7	2	3	24	17610	8819	7.59900312265381217	1	1	2426.5825180045794696	0	147	NaN	1	1	0	1	2	0
7	2	3	25	9345	7020	7.5990493200952187181	1	1	1667.0893980044638738	0	426	NaN	0	0	0	1	2	0
7	2	3	26	42852	570	7.5990956116002053022	0	1	669.10608299076557159	0	NaN	NaN	0	1	1	0	1	0
7	2	3	27	23420	7066	7.599141908111050725	0	1	2286.7763249960262328	0	NaN	NaN	0	1	1	0	1	0
7	2	3	28	68365	7410	7.5991881990339607	0	1	745.28612899302970618	0	NaN	NaN	0	1	1	0	1	0
7	2	3	29	28356	7306	7.5992344898404553533	0	1	686.98670700541697443	0	NaN	NaN	0	1	1	0	1	0
7	2	3	30	56819	7785	7.5993270780891180038	1	0	1268.3068350015673786	0	90	NaN	1	0	1	0	1	0
7	2	3	31	20899	4152	7.5993733720388263464	1	1	988.13170399807859212	0	148	NaN	1	1	0	1	2	0
7	2	3	32	15646	1645	7.5994196729734539986	1	0	852.90072399948257953	0	682	NaN	0	1	1	0	1	0
7	2	3	33	22516	276	7.5994659594725817442	0	1	2009.8491779936011881	1	NaN	NaN	0	1	1	1	1	0
7	2	3	34	56265	1475	7.5995122623862698674	0	1	1122.6637399959145114	0	NaN	NaN	0	1	1	0	1	0
7	2	3	35	27648	1102	7.5995585508644580841	0	1	1283.8834779977332801	0	NaN	NaN	0	1	1	0	1	0
7	2	3	36	10370	4812	7.5996048427186906338	1	1	749.09466100507415831	0	30	53	1	1	0	1	2	0
7	2	3	37	20899	4152	7.5996511416742578149	1	1	702.26313600142020732	0	5	154	1	1	0	1	2	0
7	2	3	38	36911	485	7.5996974378358572721	1	1	1169.0759229968534783	0	83	131	1	1	0	1	2	0
7	2	3	39	40841	534	7.599743734928779304	0	0	802.09340399596840143	0	NaN	NaN	0	0	0	1	2	0
7	2	3	40	72908	7561	7.5997900231741368771	1	1	1302.5355760037200525	0	173	296	0	0	0	1	2	0
7	2	3	41	33611	7116	7.5998363132821395993	0	1	611.31069200928322971	0	NaN	NaN	0	1	1	0	1	0
7	2	3	42	20869	4035	7.5999289080500602722	0	1	1017.4821060063550249	0	NaN	NaN	0	1	1	0	1	0
7	2	3	43	14764	6077	7.5999752025818452239	0	1	1910.774181000306271	0	NaN	NaN	0	1	1	0	1	0
7	2	3	44	25883	4593	7.6000215008389204741	0	1	865.51207100274041295	0	NaN	NaN	0	1	1	0	1	0
7	2	3	45	8843	4442	7.600067790481261909	0	1	703.54239500011317432	0	NaN	NaN	0	1	1	0	1	0
7	2	3	46	44607	9130	7.6001140851294621825	1	1	1247.1930299943778664	0	137	NaN	1	1	0	1	2	0
7	2	3	47	61749	848	7.6001603793120011687	1	1	817.86650899448432028	0	45	118	1	1	0	1	2	0
7	2	3	48	53686	5221	7.6002066734945401549	0	1	890.34730500134173781	0	NaN	NaN	0	1	1	0	1	0
7	2	3	49	58133	5313	7.6002529674442484975	1	1	782.95138200337532908	0	133	163	1	1	0	2	2	0
7	2	3	50	6644	4893	7.6002991609275341034	0	1	663.79730300104711205	0	NaN	NaN	0	1	1	0	1	0
7	2	3	51	9028	105	7.6003454527817666531	0	1	843.83494799840264022	0	NaN	NaN	0	1	1	0	1	0
7	2	3	52	22836	1937	7.6003917476627975702	0	1	702.312078996328637	0	NaN	NaN	0	1	1	0	1	0
7	2	3	53	30756	4900	7.6004380488302558661	1	0	901.9537790009053424	0	802	NaN	0	1	1	0	1	0
7	2	3	54	10088	6851	7.6005306371953338385	1	1	1441.6118259978247806	0	56	59	1	1	0	1	2	0
7	2	3	55	14333	6265	7.6005769334733486176	0	1	1327.8778779931599274	0	NaN	NaN	0	1	1	0	1	0
7	2	3	56	46355	1069	7.6006232192739844322	1	0	757.19994099927134812	0	276	NaN	0	1	1	0	1	0
7	2	3	57	40610	2195	7.6006695186952129006	1	0	1403.1896579981548712	0	164	NaN	1	0	1	0	1	0
7	2	3	58	57097	2484	7.6007158057764172554	0	1	762.33433900051750243	0	NaN	NaN	0	1	1	0	1	0
7	2	3	59	35245	3699	7.6007621001917868853	0	1	1364.4568790041375905	0	NaN	NaN	0	1	1	0	1	0
7	2	3	60	18419	3940	7.600808393326587975	0	1	1133.4966909926151857	0	NaN	NaN	0	1	1	0	1	0
7	2	3	61	39032	7054	7.6008546882076188922	1	1	703.44457999453879893	0	95	NaN	1	1	0	1	2	0
7	2	3	62	17421	2492	7.6009009814588353038	0	1	771.50444500148296356	0	NaN	NaN	0	1	1	0	1	0
7	2	3	63	62454	7629	7.6009472805308178067	1	0	1772.8004390082787722	0	112	NaN	1	0	1	0	1	0
7	2	4	1	2455	5273	7.6029429167974740267	1	0	1070.4221699998015538	0	247	NaN	0	1	1	0	1	0
7	2	4	2	2029	4467	7.6029892569640651345	0	1	656.69014900049660355	0	NaN	NaN	0	1	1	0	1	0
7	2	4	3	4496	5604	7.6030355003895238042	1	1	926.10130099637899548	0	134	NaN	1	1	0	1	2	0
7	2	4	4	54438	4127	7.603081841953098774	1	1	1120.7830809871666133	0	120	NaN	1	1	0	1	2	0
7	2	4	5	10566	5242	7.6031280945753678679	0	1	965.72822799498680979	0	NaN	NaN	0	1	1	0	1	0
7	2	4	6	53892	742	7.6031744506908580661	0	1	731.36925599828828126	0	NaN	NaN	0	1	1	0	1	0
7	2	4	7	50658	5995	7.6032206794479861856	0	1	502.971124995383434	0	NaN	NaN	0	1	1	0	1	0
7	2	4	8	27522	6183	7.6032670346321538091	0	1	1172.0472099987091497	0	NaN	NaN	0	1	1	0	1	0
7	2	4	9	3451	3974	7.6033132626907899976	0	1	792.66769000969361514	0	NaN	NaN	0	1	1	0	1	0
7	2	4	10	12016	3927	7.6034058575751259923	0	1	1257.6134079863550141	0	NaN	NaN	0	1	1	0	1	0
7	2	4	11	4198	9913	7.6034522295230999589	1	0	654.29402000154368579	0	874	NaN	0	1	1	0	1	0
7	2	4	12	23420	7066	7.6034984411671757698	1	0	2254.3395490065449849	0	47	NaN	1	0	1	0	1	0
7	2	4	13	61874	853	7.6035448252223432064	0	1	1236.4927700109547004	0	NaN	NaN	0	1	1	0	1	0
7	2	4	14	6269	7979	7.6035910326754674315	0	1	637.19289100845344365	0	NaN	NaN	0	1	1	0	1	0
7	2	4	15	13524	2247	7.6036374218529090285	0	1	632.17087900557089597	0	NaN	NaN	0	1	1	0	1	0
7	2	4	16	18731	4061	7.603683625697158277	1	0	706.89705399854574353	0	855	NaN	0	1	1	0	1	0
7	2	4	17	8814	7697	7.6037300187163054943	1	1	1865.9737060079351068	1	392	NaN	0	0	1	1	2	0
7	2	4	18	65311	2287	7.6037762102205306292	0	1	974.54809100599959493	0	NaN	NaN	0	1	1	0	1	0
7	2	4	19	17214	9977	7.6038687995169311762	0	1	1264.7595339949475601	0	NaN	NaN	0	1	1	0	1	0
7	2	4	20	26740	6728	7.6039152108132839203	0	1	726.57701598654966801	0	NaN	NaN	0	1	1	0	1	0
7	2	4	21	65553	5811	7.6039613872999325395	0	1	738.58620099781546742	0	NaN	NaN	0	1	1	0	1	0
7	2	4	22	37854	3586	7.6040078074438497424	0	1	913.99295099836308509	0	NaN	NaN	0	1	1	0	1	0
7	2	4	23	47023	2584	7.6040539729874581099	0	0	1567.8695310052717105	0	NaN	NaN	0	0	0	1	2	0
7	2	4	24	33147	5905	7.6041001746198162436	0	1	1603.6755070090293884	1	NaN	NaN	0	1	1	1	1	0
7	2	4	25	55348	6619	7.6041464637964963913	0	1	1002.9711100069107488	0	NaN	NaN	0	1	1	0	1	0
7	2	4	26	2455	5273	7.6041927577462047338	1	1	676.7142860044259578	0	24	272	1	1	0	1	2	0
7	2	4	27	30756	4900	7.6042390554212033749	1	1	717.34622299845796078	0	36	839	1	1	0	1	2	0
7	2	4	28	66588	1482	7.6042853406397625804	1	0	1603.2789800083264709	0	323	NaN	0	1	1	0	1	0
7	2	4	29	14983	6719	7.6043316366849467158	0	1	779.24035901378374547	0	NaN	NaN	0	1	1	0	1	0
7	2	4	30	9345	7020	7.6043779316823929548	1	1	806.35700799757614732	0	67	494	1	1	0	1	2	0
7	2	4	31	62928	5563	7.6044705206295475364	0	1	1107.6427090010838583	0	NaN	NaN	0	1	1	0	1	0
7	2	4	32	46456	7950	7.6045168145792558789	0	1	1016.934862986090593	0	NaN	NaN	0	1	1	0	1	0
7	2	4	33	35416	3249	7.6045631128363311291	0	1	883.14447099401149899	0	NaN	NaN	0	1	1	0	1	0
7	2	4	34	35264	8261	7.6046094039920717478	0	1	624.57059600274078548	0	NaN	NaN	0	1	1	0	1	0
7	2	4	35	37398	8768	7.6046557077206671238	0	1	836.60674000566359609	0	NaN	NaN	0	1	1	0	1	0
7	2	4	36	17214	9977	7.6047019980615004897	1	1	785.57165700476616621	0	16	NaN	1	1	0	1	2	0
7	2	4	37	67428	9537	7.6047482839785516262	0	1	867.73808799625840038	0	NaN	NaN	0	1	1	0	1	0
7	2	4	38	12003	7895	7.6047945792088285089	0	1	704.53228999394923449	0	NaN	NaN	0	1	1	0	1	0
7	2	4	39	7997	2206	7.6048408716451376677	0	1	649.03040800709277391	0	NaN	NaN	0	1	1	0	1	0
7	2	4	40	56234	9316	7.6048871752573177218	0	1	702.97211399883963168	0	NaN	NaN	0	1	1	0	1	0
7	2	4	41	2977	6378	7.6049334638519212604	1	0	739.70160599856171757	0	259	NaN	0	1	1	0	1	0
7	2	4	42	59200	4567	7.6049797622254118323	0	1	719.52172899909783155	0	NaN	NaN	0	1	1	0	1	0
7	2	4	43	46456	7950	7.6050723516382277012	1	1	768.32835099776275456	0	10	NaN	1	1	0	1	2	0
7	2	4	44	56470	8037	7.605118643376044929	0	1	1303.4078030032105744	0	NaN	NaN	0	1	1	0	1	0
7	2	4	45	62345	4211	7.6051649395376443863	1	1	1202.9861690098186955	0	404	NaN	0	0	0	1	2	0
7	2	4	46	68923	2604	7.6052112255711108446	1	1	1821.9523820007452741	0	502	516	0	0	0	1	2	0
7	2	4	47	52004	3070	7.6052575197536498308	0	1	833.64815199456643313	0	NaN	NaN	0	1	1	0	1	0
7	2	4	48	9834	5826	7.605303823365829885	0	1	722.14582598826382309	0	NaN	NaN	0	1	1	0	1	0
7	2	4	49	42265	2750	7.6053500201087445021	0	1	1176.7859889951068908	0	NaN	NaN	0	1	1	0	1	0
7	2	4	50	12623	4522	7.6053963110316544771	1	1	936.13793399708811194	0	300	317	0	0	0	1	2	0
7	2	4	51	45806	5972	7.6054426031187176704	0	1	872.53676200634799898	0	NaN	NaN	0	1	1	0	1	0
7	2	4	52	4779	8403	7.6054889026563614607	1	0	941.43859499308746308	0	136	NaN	1	0	1	0	1	0
7	2	4	53	53892	742	7.6055351889226585627	1	1	954.44473800307605416	0	46	NaN	1	1	0	1	2	0
7	2	4	54	46359	3350	7.6055814893916249275	0	1	1117.2599679994164035	0	NaN	NaN	0	1	1	0	1	0
7	2	4	55	5274	6169	7.6056740715866908431	1	1	940.73334700078703463	0	238	458	1	1	0	1	2	0
7	2	4	56	53859	740	7.6057203719392418861	0	1	764.66574899677652866	0	NaN	NaN	0	1	1	0	1	0
7	2	4	57	41986	4272	7.605766665656119585	1	0	672.88889600604306906	0	287	NaN	0	1	1	0	1	0
7	2	4	58	7887	5670	7.6058129591401666403	1	0	902.59883600811008364	0	301	NaN	0	1	1	0	1	0
7	2	4	59	30848	412	7.6058592591434717178	0	1	1175.3189580049365759	0	NaN	NaN	0	1	1	0	1	0
7	2	4	60	15807	7873	7.6059055442456156015	0	1	661.35268300422467291	0	NaN	NaN	0	1	1	0	1	0
7	2	4	61	22783	282	7.6059518443653360009	0	1	901.5444969991222024	0	NaN	NaN	0	1	1	0	1	0
7	2	4	62	22070	1218	7.6059981384314596653	1	1	902.12425999925471842	0	173	344	1	1	0	1	2	0
7	2	5	1	4779	8403	7.6084600463509559631	1	0	1078.5443549975752831	0	10	147	1	0	1	0	1	0
7	2	5	2	21965	1122	7.608506346819922328	1	0	714.78321000176947564	0	312	NaN	0	1	1	0	1	0
7	2	5	3	53859	740	7.6085526408860459924	1	1	849.08397399703972042	0	8	NaN	1	1	0	1	2	0
7	2	5	4	3522	6328	7.6085989457787945867	0	1	857.11882500618230551	0	NaN	NaN	0	1	1	0	1	0
7	2	5	5	57796	9548	7.6086452454328536987	0	1	702.38195499405264854	0	NaN	NaN	0	1	1	0	1	0
7	2	5	6	21354	9510	7.608691540895961225	0	1	903.09967999928630888	0	NaN	NaN	0	1	1	0	1	0
7	2	5	7	3721	4361	7.6087378284428268671	1	1	909.03599500597920269	0	124	NaN	1	1	0	1	2	0
7	2	5	8	45485	1368	7.6087841340340673923	0	1	1645.3216890076873824	0	NaN	NaN	0	1	1	0	1	0
7	2	5	9	18357	7912	7.6088304230943322182	0	1	1047.8646450064843521	0	NaN	NaN	0	1	1	0	1	0
7	2	5	10	27078	7719	7.6088767292676493526	0	1	1132.1971970028243959	0	NaN	NaN	0	1	1	0	1	0
7	2	5	11	30082	402	7.6089693293906748295	0	1	1073.064776006503962	0	NaN	NaN	0	1	1	0	1	0
7	2	5	12	24475	6404	7.6090156004065647721	0	1	821.45908499660436064	0	NaN	NaN	0	1	1	0	1	0
7	2	5	13	1648	8303	7.6090619165915995836	1	1	657.05114700540434569	0	139	148	1	1	0	1	2	0
7	2	5	14	18841	2937	7.6091081888880580664	0	1	829.52693100378382951	0	NaN	NaN	0	1	1	0	1	0
7	2	5	15	14266	9883	7.6091545191593468189	0	1	807.69238299399148673	0	NaN	NaN	0	1	1	0	1	0
7	2	5	16	65259	3127	7.6092007774859666824	1	1	739.8094779928214848	0	185	NaN	1	1	0	1	2	0
7	2	5	17	42852	570	7.6092471048468723893	1	1	847.55049299565143883	0	115	NaN	1	1	0	1	2	0
7	2	5	18	5879	55	7.6092933634063228965	0	1	1290.1498220016947016	0	NaN	NaN	0	1	1	0	1	0
7	2	5	19	1253	4918	7.6093396660871803761	0	1	803.68635299964807928	0	NaN	NaN	0	1	1	0	1	0
7	2	5	20	54088	7027	7.6093859571265056729	0	1	765.51023799402173609	0	NaN	NaN	0	1	1	0	1	0
7	2	5	21	72693	1905	7.6094785413006320596	0	1	1755.5102119949879125	0	NaN	NaN	0	1	1	0	1	0
7	2	5	22	20900	8442	7.6095248423516750336	0	1	710.25896299397572875	0	NaN	NaN	0	1	1	0	1	0
7	2	5	23	37747	5111	7.6095711276866495609	0	1	771.44317099009640515	0	NaN	NaN	0	1	1	0	1	0
7	2	5	24	43695	6764	7.6096174286212772131	0	1	840.9413909976137802	0	NaN	NaN	0	1	1	0	1	0
7	2	5	25	34733	9665	7.6096637201262637973	0	1	819.61962400237098336	0	NaN	NaN	0	1	1	0	1	0
7	2	5	26	23563	6618	7.609710023389197886	0	1	825.67612300044856966	0	NaN	NaN	0	1	1	0	1	0
7	2	5	27	628	8844	7.6097563006915152073	0	1	803.66620099812280387	0	NaN	NaN	0	1	1	0	1	0
7	2	5	28	1846	5631	7.6098026105901226401	0	1	919.94059199350886047	0	NaN	NaN	0	1	1	0	1	0
7	2	5	29	26436	349	7.6098488923162221909	0	1	1121.2954020011238754	0	NaN	NaN	0	1	1	0	1	0
7	2	5	30	13912	6574	7.6099414832424372435	0	1	1329.7827430069446564	0	NaN	NaN	0	1	1	0	1	0
7	2	5	31	55231	9972	7.6099877865053713322	1	0	575.2347059897147119	0	829	NaN	0	1	1	0	1	0
7	2	5	32	72869	6444	7.6100340700941160321	0	1	724.36597500927746296	0	NaN	NaN	0	1	1	0	1	0
7	2	5	33	5602	2830	7.6100803791778162122	1	1	1469.3528450006851926	1	402	NaN	0	0	1	2	2	0
7	2	5	34	32106	8399	7.6101266526384279132	0	1	1123.846551010501571	0	NaN	NaN	0	1	1	0	1	0
7	2	5	35	44473	4244	7.6101729713845998049	0	1	1546.634237005491741	0	NaN	NaN	0	1	1	0	1	0
7	2	5	36	55452	3515	7.6102192477555945516	0	1	882.88583299436140805	0	NaN	NaN	0	1	1	0	1	0
7	2	5	37	33611	7116	7.6102655521826818585	1	1	860.22597299597691745	0	120	NaN	1	1	0	1	2	0
7	2	5	38	39752	8678	7.6103118351893499494	0	1	753.41730601212475449	0	NaN	NaN	0	1	1	0	1	0
7	2	5	39	56539	5890	7.6103580375202000141	0	1	864.16936600289773196	0	NaN	NaN	0	1	1	0	1	0
7	2	5	40	14213	4838	7.6104043249506503344	0	1	2864.6777459944132715	1	NaN	NaN	0	1	1	1	1	0
7	2	5	41	16075	3861	7.6104969080770388246	0	1	1136.9168679957510903	0	NaN	NaN	0	1	1	0	1	0
7	2	5	42	66310	3728	7.6105432033073157072	0	1	702.9253229993628338	0	NaN	NaN	0	1	1	0	1	0
7	2	5	43	41188	7625	7.610589505173265934	0	1	856.71109000395517796	0	NaN	NaN	0	1	1	0	1	0
7	2	5	44	30465	6361	7.6106357993558049202	0	1	743.7099879898596555	0	NaN	NaN	0	1	1	0	1	0
7	2	5	45	8788	4637	7.6106820909772068262	1	0	602.46038199693430215	0	375	NaN	0	1	1	0	1	0
7	2	5	46	70646	2812	7.6107283872552216053	0	1	823.80161700712051243	0	NaN	NaN	0	1	1	0	1	0
7	2	5	47	56426	1303	7.6107746743364259601	0	1	815.61510299798101187	0	NaN	NaN	0	1	1	0	1	0
7	2	5	48	53523	7545	7.610820973408408463	0	1	1105.2414320001844317	0	NaN	NaN	0	1	1	0	1	0
7	2	5	49	60260	2298	7.6108672692207619548	0	1	764.36226700025144964	0	NaN	NaN	0	1	1	0	1	0
7	2	5	50	13954	5401	7.610959855024702847	0	1	872.25608101289253682	0	NaN	NaN	0	1	1	0	1	0
7	2	5	51	55937	9776	7.611006146646104753	0	0	876.92497301031835377	0	NaN	NaN	0	0	0	1	2	0
7	2	5	52	7661	1056	7.6110524376854300499	0	1	583.41443800600245595	0	NaN	NaN	0	1	1	0	1	0
7	2	5	53	50658	5995	7.6110987407155334949	1	1	880.21312998898793012	0	107	NaN	1	1	0	1	2	0
7	2	5	54	21964	5431	7.6111450341995805502	0	1	1605.0341599911917001	0	NaN	NaN	0	1	1	0	1	0
7	2	5	55	21310	8593	7.6111913220956921577	0	0	852.57154999999329448	0	NaN	NaN	0	0	0	1	2	0
7	2	5	56	65173	9719	7.611237615579739213	0	1	852.48721000971272588	0	NaN	NaN	0	1	1	0	1	0
7	2	5	57	42960	6148	7.6112839130219072104	1	1	2003.4101849887520075	1	449	NaN	0	0	1	1	2	0
7	2	5	58	11562	2687	7.6113302105804905295	0	1	702.67579800565727055	0	NaN	NaN	0	1	1	0	1	0
7	2	5	59	54623	4187	7.6113764968467876315	1	0	947.28228000167291611	0	203	NaN	1	0	1	0	1	0
7	2	5	60	58479	3765	7.6114227987127378583	0	1	632.80837300408165902	0	NaN	NaN	0	1	1	0	1	0
7	2	5	61	2282	4431	7.6114690897520631552	0	1	810.33101100183557719	0	NaN	NaN	0	1	1	0	1	0
7	2	5	62	46355	1069	7.6115153852151706815	1	1	763.91427298949565738	0	130	407	1	1	0	1	2	0
7	2	5	63	36397	7531	7.6115616761380806565	0	1	747.90868398849852383	0	NaN	NaN	0	1	1	0	1	0
7	2	6	1	50658	5995	7.6131059691542759538	1	1	828.90740298898890615	0	10	118	1	1	0	1	2	0
7	2	6	2	18908	8152	7.6131522634532302618	0	1	2572.6874829997541383	0	NaN	NaN	0	1	1	0	1	0
7	2	6	3	58085	3854	7.6131985505344346166	0	1	1002.3030979937175289	0	NaN	NaN	0	1	1	0	1	0
7	2	6	4	16897	2311	7.6132448527496308088	0	1	756.80371200724039227	0	NaN	NaN	0	1	1	0	1	0
7	2	6	5	6644	4893	7.6132911406457424164	1	1	1502.9027370037510991	1	142	NaN	1	1	1	1	2	0
7	2	6	6	41278	1470	7.6133374389028176665	0	1	882.76417400629725307	0	NaN	NaN	0	1	1	0	1	0
7	2	6	7	5602	2830	7.613383734249509871	1	1	746.81640400376636535	0	36	439	1	1	0	1	2	0
7	2	6	8	38818	511	7.6134300235426053405	1	1	778.98471799562685192	0	550	NaN	0	0	0	1	2	0
7	2	6	9	67980	1066	7.6134763160953298211	0	1	1040.7692880107788369	0	NaN	NaN	0	1	1	0	1	0
7	2	6	10	51076	8504	7.6135226110927760601	0	1	826.97078699129633605	0	NaN	NaN	0	1	1	0	1	0
7	2	6	11	16897	2311	7.613568911561742425	1	1	1158.2261730072787032	1	6	NaN	1	1	1	1	2	0
7	2	6	12	24291	9040	7.6136614999268203974	0	1	934.65816900425124913	0	NaN	NaN	0	1	1	0	1	0
7	2	6	13	11233	8422	7.6137077921302989125	0	1	1302.8029429988237098	0	NaN	NaN	0	1	1	0	1	0
7	2	6	14	14213	4838	7.613754084100946784	1	1	743.63830499351024628	0	36	NaN	1	1	0	1	2	0
7	2	6	15	47388	7165	7.6138003830565139651	0	1	865.77014099748339504	0	NaN	NaN	0	1	1	0	1	0
7	2	6	16	60193	4665	7.6138466756092384458	1	0	1340.0223520002327859	0	338	NaN	0	1	1	0	1	0
7	2	6	17	22516	276	7.6138929706066846848	1	1	993.74958399857860059	0	171	NaN	1	1	0	1	2	0
7	2	6	18	597	6487	7.6139392671175301075	0	1	790.0134410010650754	0	NaN	NaN	0	1	1	0	1	0
7	2	6	19	46783	8383	7.6139855505898594856	0	0	1542.0874590054154396	0	NaN	NaN	0	0	0	1	2	0
7	2	6	20	15148	4095	7.6140318497782573104	1	0	1128.5580939875217155	0	533	NaN	0	1	1	0	1	0
7	2	6	21	40307	7176	7.6140781453577801585	0	1	1121.5430729935178533	0	NaN	NaN	0	1	1	0	1	0
7	2	6	22	5243	5279	7.6141706317430362105	0	1	1103.3752729999832809	0	NaN	NaN	0	1	1	0	1	0
7	2	6	23	16075	3861	7.6142169288359582424	1	1	1156.0156899940920994	0	44	NaN	1	1	0	1	2	0
7	2	6	24	46256	7300	7.6142632178962230682	1	0	1223.8652779924450442	0	950	NaN	0	1	1	0	1	0
7	2	6	25	52644	9879	7.6143095182487741113	0	1	935.27367801289074123	0	NaN	NaN	0	1	1	0	1	0
7	2	6	26	58343	5288	7.6143558080075308681	0	1	1826.8897319940151647	0	NaN	NaN	0	1	1	0	1	0
7	2	6	27	40249	8201	7.6144021002110093832	0	1	768.05288699688389897	0	NaN	NaN	0	1	1	0	1	0
7	2	6	28	60788	9458	7.6144483961397781968	0	1	1242.7712409989908338	0	NaN	NaN	0	1	1	0	1	0
7	2	6	29	51078	700	7.6144946919521316886	0	1	990.86808800348080695	0	NaN	NaN	0	1	1	0	1	0
7	2	6	30	53523	7545	7.6145409957971423864	1	1	820.79246599460020661	0	44	NaN	1	1	0	1	2	0
7	2	6	31	5066	9753	7.6145872811321169138	0	1	1151.8359729961957783	0	NaN	NaN	0	1	1	0	1	0
7	2	6	32	11149	2981	7.6146335817174986005	0	1	918.1674220017157495	0	NaN	NaN	0	1	1	0	1	0
7	2	6	33	16897	2311	7.6146798661211505532	1	1	730.40845298964995891	0	21	28	1	1	0	1	2	0
7	2	6	34	27648	1102	7.6147724633337929845	1	1	2280.5956060037715361	1	186	NaN	1	1	1	1	2	0
7	2	6	35	16600	2186	7.614818757283501327	1	1	1610.7739369908813387	0	475	638	0	0	0	1	2	0
7	2	6	36	65964	5676	7.6148650516988709569	0	1	653.84789400559384376	0	NaN	NaN	0	1	1	0	1	0
7	2	6	37	42514	2841	7.6149113454157486558	0	1	1002.2167749993968755	0	NaN	NaN	0	1	1	0	1	0
7	2	6	38	28901	9452	7.6149576399475336075	0	1	1501.9351069931872189	0	NaN	NaN	0	1	1	0	1	0
7	2	6	39	53081	6883	7.6150039329659193754	0	1	1010.6125530001008883	0	NaN	NaN	0	1	1	0	1	0
7	2	6	40	70397	5686	7.6150502212112769485	0	1	891.54333200713153929	0	NaN	NaN	0	1	1	0	1	0
7	2	6	41	64837	1448	7.615096515160985291	0	1	763.06819800811354071	0	NaN	NaN	0	1	1	0	1	0
7	2	6	42	38281	2353	7.6151428056182339787	0	1	1350.5716249928809702	0	NaN	NaN	0	1	1	0	1	0
7	2	6	43	13455	7726	7.6151891102781519294	0	1	1072.9441520088585094	0	NaN	NaN	0	1	1	0	1	0
7	2	6	44	49049	6890	7.6152816973626613617	0	1	854.1383230040082708	0	NaN	NaN	0	1	1	0	1	0
7	2	6	45	53396	6928	7.6153279920108616352	0	1	620.94837598851881921	0	NaN	NaN	0	1	1	0	1	0
