SUBJECT	SESSION	RUN	TRIAL	73KID	10KID	TIME	ISOLD	ISCORRECT	RT	CHANGEMIND	MEMORYRECENT	MEMORYFIRST	ISOLDCURRENT	ISCORRECTCURRENT	TOTAL1	TOTAL2	BUTTON	MISSINGDATA
4	1	1	1	46003	626	0.72362268040888011456	0	1	1792.8944760060403496	0	NaN	NaN	0	1	1	0	1	0
4	1	1	2	23082	5013	0.7236689799465239048	0	1	726.68527998030185699	0	NaN	NaN	0	1	1	0	1	0
4	1	1	3	8031	4850	0.72371526260394603014	0	1	643.51585099939256907	0	NaN	NaN	0	1	1	0	1	0
4	1	1	4	36381	8823	0.72376157401595264673	0	1	733.44042498501949012	0	NaN	NaN	0	1	1	0	1	0
4	1	1	5	2949	9538	0.72380785306449979544	0	1	602.37500100629404187	0	NaN	NaN	0	1	1	0	1	0
4	1	1	6	56801	6061	0.72385417227633297443	0	1	627.50872300239279866	0	NaN	NaN	0	1	1	0	1	0
4	1	1	7	25466	4421	0.72390043898485600948	0	1	677.04172400408424437	0	NaN	NaN	0	1	1	0	1	0
4	1	1	8	5679	3858	0.72394676925614476204	0	1	784.25819298718124628	0	NaN	NaN	0	1	1	0	1	0
4	1	1	9	72196	8124	0.7239930260693654418	0	1	677.34896199544891715	0	NaN	NaN	0	1	1	0	1	0
4	1	1	10	16441	4843	0.72403936460614204407	0	1	712.13448801427148283	0	NaN	NaN	0	1	1	0	1	0
4	1	1	11	29265	7941	0.72408561839256435633	0	1	806.61046601017005742	0	NaN	NaN	0	1	1	0	1	0
4	1	1	12	41499	4523	0.72413196077104657888	0	1	768.05490200058557093	0	NaN	NaN	0	1	1	0	1	0
4	1	1	13	37122	1070	0.72422455833293497562	0	1	997.13341300957836211	0	NaN	NaN	0	1	1	0	1	0
4	1	1	14	5780	9588	0.72427079745102673769	0	1	924.76227300358004868	0	NaN	NaN	0	1	1	0	1	0
4	1	1	15	33497	4623	0.72431715554557740688	0	1	885.89517501532100141	0	NaN	NaN	0	1	1	0	1	0
4	1	1	16	36390	3185	0.72436338895931839943	0	1	947.84003499080426991	0	NaN	NaN	0	1	1	0	1	0
4	1	1	17	28551	4586	0.72440975089557468891	0	1	803.99932898581027985	0	NaN	NaN	0	1	1	0	1	0
4	1	1	18	3053	1009	0.72445597348269075155	0	1	1017.0462990063242614	0	NaN	NaN	0	1	1	0	1	0
4	1	1	19	10743	8634	0.724502348224632442	0	1	972.68186099245212972	0	NaN	NaN	0	1	1	0	1	0
4	1	1	20	1573	9648	0.72454855393152683973	0	1	1360.6543230125680566	0	NaN	NaN	0	1	1	0	1	0
4	1	1	21	58570	9425	0.72459492972120642662	0	1	885.42544300435110927	0	NaN	NaN	0	1	1	0	1	0
4	1	1	22	11024	1344	0.72464114602189511061	0	1	985.00854300800710917	0	NaN	NaN	0	1	1	0	1	0
4	1	1	23	53367	7441	0.72473373368848115206	0	1	815.29273401247337461	0	NaN	NaN	0	1	1	0	1	0
4	1	1	24	65042	3902	0.72478004393633455038	0	1	726.4981549815274775	0	NaN	NaN	0	1	1	0	1	0
4	1	1	25	70847	8795	0.72482632636092603207	0	1	763.91078397864475846	0	NaN	NaN	0	1	1	0	1	0
4	1	1	26	27488	1840	0.72487263137008994818	0	1	756.62426298367790878	0	NaN	NaN	0	1	1	0	1	0
4	1	1	27	55741	1356	0.72491891460958868265	0	1	893.59643100760877132	0	NaN	NaN	0	1	1	0	1	0
4	1	1	28	30178	5506	0.72496522148139774799	0	1	880.39396100793965161	0	NaN	NaN	0	1	1	0	1	0
4	1	1	29	48618	666	0.72501149808522313833	0	1	847.8915560117457062	0	NaN	NaN	0	1	1	0	1	0
4	1	1	30	20447	8240	0.72505780111532658339	0	1	940.85444300435483456	0	NaN	NaN	0	1	1	0	1	0
4	1	1	31	16512	7232	0.7251040854025632143	0	1	780.97252600127831101	0	NaN	NaN	0	1	2	0	1	0
4	1	1	32	37774	5691	0.72515039646532386541	0	1	761.72617898555472493	0	NaN	NaN	0	1	1	0	1	0
4	1	1	33	48311	6661	0.72519657737575471401	0	1	755.12667701696045697	0	NaN	NaN	0	1	1	0	1	0
4	1	1	34	40407	2400	0.72524287528358399868	0	1	908.96970700123347342	0	NaN	NaN	0	1	1	0	1	0
4	1	1	35	3884	2252	0.72533546015620231628	0	1	702.69902399741113186	0	NaN	NaN	0	1	1	0	1	0
4	1	1	36	44981	612	0.72538175538647919893	0	1	1084.1987270105164498	0	NaN	NaN	0	1	1	0	1	0
4	1	1	37	2046	1609	0.7254280520137399435	0	1	835.666041006334126	0	NaN	NaN	0	1	1	0	1	0
4	1	1	38	52463	3579	0.72547433828003704548	0	1	773.57021599891595542	0	NaN	NaN	0	1	1	0	1	0
4	1	1	39	45206	1703	0.7255206364206969738	0	1	1018.8212640059646219	0	NaN	NaN	0	1	1	0	1	0
4	1	1	40	25109	9976	0.72556692804209887981	0	1	758.19802499609068036	0	NaN	NaN	0	1	1	0	1	0
4	1	1	41	61538	5770	0.72561322408728301525	0	0	2651.5478250221349299	1	NaN	NaN	0	0	1	1	2	0
4	1	1	42	12591	8748	0.7256595236249268055	0	1	909.76647700881585479	0	NaN	NaN	0	1	1	0	1	0
4	1	1	43	30286	9202	0.72570581967011094093	0	1	710.48290299950167537	0	NaN	NaN	0	1	1	0	1	0
4	1	1	44	42917	3123	0.72575210267677903175	0	1	882.20405200263485312	0	NaN	NaN	0	1	1	0	1	0
4	1	1	45	32626	436	0.72579840780235826969	0	1	1190.1961480034515262	0	NaN	NaN	0	1	1	0	1	0
4	1	1	46	28551	4586	0.72589098871685564518	1	1	1002.688773995032534	0	28	NaN	1	1	0	1	2	0
4	1	1	47	8625	1499	0.72593727963976562023	0	1	1125.0540949986316264	0	NaN	NaN	0	1	1	0	1	0
4	1	1	48	42586	2872	0.72598357684910297394	0	1	953.21780300582759082	0	NaN	NaN	0	1	1	0	1	0
4	1	1	49	34939	9173	0.72602987650316208601	0	1	1042.8476759989280254	0	NaN	NaN	0	1	1	0	1	0
4	1	1	50	39620	2665	0.72607616567984223366	0	1	1104.2045329813845456	0	NaN	NaN	0	1	1	0	1	0
4	1	1	51	40292	1045	0.7261224591638892889	0	1	1004.426718020113185	0	NaN	NaN	0	1	1	0	1	0
4	1	1	52	30964	1974	0.72616875357925891876	0	1	1002.4088810023386031	0	NaN	NaN	0	1	1	0	1	0
4	1	1	53	67118	2268	0.72621505241841077805	0	1	884.74604001385159791	0	NaN	NaN	0	1	1	0	1	0
4	1	1	54	29186	7771	0.72626134566962718964	0	1	901.91914100432768464	0	NaN	NaN	0	1	1	0	1	0
4	1	1	55	17654	6336	0.72635393601376563311	0	1	926.06104299193248153	0	NaN	NaN	0	1	1	0	1	0
4	1	1	56	53053	727	0.72640022775158286095	0	1	803.97644499316811562	0	NaN	NaN	0	1	1	0	1	0
4	1	1	57	4931	40	0.72644642728846520185	0	1	1873.1167940131854266	0	NaN	NaN	0	1	1	0	1	0
4	1	1	58	4935	6000	0.72649272088892757893	0	1	1102.2485389839857817	0	NaN	NaN	0	1	1	0	1	0
4	1	1	59	50029	7046	0.72653901122976094484	0	1	930.98099800408817828	0	NaN	NaN	0	1	1	0	1	0
4	1	1	60	18199	1607	0.72658530436456203461	0	1	1004.1463350062258542	0	NaN	NaN	0	1	1	0	1	0
4	1	1	61	54033	2132	0.7266315976157784462	0	1	923.4839589917100966	0	NaN	NaN	0	1	1	0	1	0
4	1	1	62	31011	5352	0.72667789168190211058	0	1	1102.4099140195176005	0	NaN	NaN	0	1	1	0	1	0
4	1	1	63	50771	2514	0.72672418423462659121	0	1	765.89226699434220791	0	NaN	NaN	0	1	1	0	1	0
4	1	2	1	12647	5730	0.72822980140335857868	0	1	943.44980199821293354	0	NaN	NaN	0	1	1	0	1	0
4	1	2	2	41405	4135	0.72827617789153009653	0	1	830.5402889964170754	0	NaN	NaN	0	1	1	0	1	0
4	1	2	3	67782	5169	0.72832239710260182619	0	1	822.00946597731672227	0	NaN	NaN	0	1	1	0	1	0
4	1	2	4	53303	5821	0.72836876311339437962	0	1	999.24118097987957299	0	NaN	NaN	0	1	1	0	1	0
4	1	2	5	8266	8842	0.72841497731860727072	0	1	2183.382407994940877	0	NaN	NaN	0	1	1	0	1	0
4	1	2	6	41405	4135	0.72846137103624641895	1	1	835.99395101191475987	0	3	NaN	1	1	0	1	2	0
4	1	2	7	26378	4990	0.72850757057312875986	0	1	866.0866590216755867	0	NaN	NaN	0	1	1	0	1	0
4	1	2	8	45669	9955	0.72855395753867924213	0	1	1376.8845710146706551	0	NaN	NaN	0	1	2	0	1	0
4	1	2	9	46328	7331	0.72860015206970274448	0	1	1645.0082710071001202	1	NaN	NaN	0	1	1	1	1	0
4	1	2	10	9475	3470	0.72864655510056763887	0	1	1217.0297380071133375	0	NaN	NaN	0	1	1	0	1	0
4	1	2	11	9940	9913	0.7286927409004420042	0	1	1168.2071370014455169	0	NaN	NaN	0	1	1	0	1	0
4	1	2	12	18480	3207	0.72878533636685460806	0	1	832.32124699861742556	0	NaN	NaN	0	1	1	0	1	0
4	1	2	13	13676	5799	0.72883174603339284658	0	1	2598.3193330175708979	0	NaN	NaN	0	1	1	0	1	0
4	1	2	14	12080	4068	0.72887792834080755711	0	1	1154.3206739879678935	0	NaN	NaN	0	1	1	0	1	0
4	1	2	15	26405	2204	0.72892412671353667974	0	1	806.78910700953565538	0	NaN	NaN	0	1	1	0	1	0
4	1	2	16	23742	7081	0.72897040564566850662	0	1	1103.165509004611522	0	NaN	NaN	0	1	1	0	1	0
4	1	2	17	18558	3632	0.72901671240106225014	0	1	1160.8143069897778332	0	NaN	NaN	0	1	1	0	1	0
4	1	2	18	25554	3444	0.72906300437171012163	0	1	1139.0594399999827147	0	NaN	NaN	0	1	1	0	1	0
4	1	2	19	22739	2840	0.72910929261706769466	0	1	2156.7349669930990785	0	NaN	NaN	0	1	1	0	1	0
4	1	2	20	52190	1538	0.72915558400563895702	0	1	3257.9990779922809452	0	NaN	NaN	0	1	1	0	1	0
4	1	2	21	38153	8951	0.72924818191677331924	0	1	1078.3195250260178	0	NaN	NaN	0	1	1	0	1	0
4	1	2	22	45977	8009	0.7292944715591147542	0	1	834.74896400002762675	0	NaN	NaN	0	1	1	0	1	0
4	1	2	23	28578	5772	0.72934076178353279829	0	1	1650.4605289956089109	0	NaN	NaN	0	1	1	0	1	0
4	1	2	24	46014	5200	0.72938706004060804844	0	1	971.40833799494430423	0	NaN	NaN	0	1	1	0	1	0
4	1	2	25	69468	7984	0.72943335049785673618	0	1	1587.4537939962465316	0	NaN	NaN	0	1	1	0	1	0
4	1	2	26	36173	9865	0.72947964898776262999	0	1	957.68141801818273962	0	NaN	NaN	0	1	1	0	1	0
4	1	2	27	60743	7367	0.72952594154048711061	0	1	1171.8783659744076431	0	NaN	NaN	0	1	1	0	1	0
4	1	2	28	32626	436	0.72957223781850188971	1	1	902.72721901419572532	0	45	NaN	1	1	0	1	2	0
4	1	2	29	60287	3014	0.72961853211745619774	0	1	780.53545599686913192	0	NaN	NaN	0	1	1	0	1	0
4	1	2	30	64239	3569	0.72966481873299926519	0	1	855.68873400916345417	0	NaN	NaN	0	1	1	0	1	0
4	1	2	31	65093	6871	0.72975741035770624876	0	1	977.18620899831876159	0	NaN	NaN	0	1	1	0	1	0
4	1	2	32	47139	4263	0.72980370651930570602	0	1	1034.7841659968253225	0	NaN	NaN	0	1	1	0	1	0
4	1	2	33	65408	3694	0.72985000268090516329	0	1	1003.962555987527594	0	NaN	NaN	0	1	1	0	1	0
4	1	2	34	56231	5322	0.72989629465155303478	0	1	2545.1473039865959436	0	NaN	NaN	0	1	1	0	1	0
4	1	2	35	42231	4061	0.72994259081315249205	0	1	1056.0854129726067185	0	NaN	NaN	0	1	1	0	1	0
4	1	2	36	36999	7985	0.72998888581059873104	0	1	2183.5605140076950192	0	NaN	NaN	0	1	2	0	1	0
4	1	2	37	56248	6041	0.73003517230972647667	0	1	1403.5946819931268692	0	NaN	NaN	0	1	1	0	1	0
4	1	2	38	66633	6142	0.7300814782502129674	0	1	1074.891511001624167	0	NaN	NaN	0	1	1	0	1	0
4	1	2	39	17888	6843	0.73012776544783264399	0	1	865.33279699506238103	0	NaN	NaN	0	1	1	0	1	0
4	1	2	40	51445	7442	0.73017396498471498489	0	1	685.26148900855332613	0	NaN	NaN	0	1	1	0	1	0
4	1	2	41	31497	1108	0.73026655148714780807	0	1	1504.0018240106292069	0	NaN	NaN	0	1	1	0	1	0
4	1	2	42	55895	9936	0.73031284485477954149	0	0	1657.9436099855229259	0	NaN	NaN	0	0	0	1	2	0
4	1	2	43	9169	2757	0.73035914602223783731	0	1	1115.4120949795469642	0	NaN	NaN	0	1	1	0	1	0
4	1	2	44	57799	9658	0.73040548490826040506	0	1	1806.444640998961404	0	NaN	NaN	0	1	1	0	1	0
4	1	2	45	67782	5169	0.73045177478343248367	1	1	952.65421300427988172	0	41	NaN	1	1	0	1	2	0
4	1	2	46	19747	3376	0.73049808037467300892	0	1	1034.7945379908196628	0	NaN	NaN	0	1	1	0	1	0
4	1	2	47	9392	7287	0.73054436908569186926	0	1	2107.4086249864194542	0	NaN	NaN	0	1	1	0	1	0
4	1	2	48	18729	5363	0.73059066745918244123	0	1	1581.7653150006663054	0	NaN	NaN	0	1	1	0	1	0
4	1	2	49	41484	5834	0.73063697223551571369	0	1	1651.0417019890155643	0	NaN	NaN	0	1	1	0	1	0
4	1	2	50	40394	6448	0.73068326886277645826	0	1	1372.744218009756878	0	NaN	NaN	0	1	1	0	1	0
4	1	2	51	5030	4186	0.73072956700343638659	0	1	795.29650101903825998	0	NaN	NaN	0	1	1	0	1	0
4	1	2	52	39969	9715	0.7307758629322052002	0	1	1157.2776060202158988	0	NaN	NaN	0	1	1	0	1	0
4	1	2	53	37907	1430	0.73086845770012587309	0	1	1939.9418309913016856	0	NaN	NaN	0	1	1	0	1	0
4	1	2	54	28249	9621	0.73091475805267691612	0	1	1421.1659859865903854	0	NaN	NaN	0	1	1	0	1	0
4	1	2	55	30919	7112	0.73096104746218770742	0	1	2046.6270149918273091	0	NaN	NaN	0	1	1	0	1	0
4	1	2	56	51111	9845	0.73100734781473875046	0	1	1382.9969209909904748	0	NaN	NaN	0	1	1	0	1	0
4	1	2	57	41215	7473	0.73105364828370511532	0	1	2170.5981639970559627	0	NaN	NaN	0	1	1	0	1	0
4	1	2	58	6432	60	0.73109995084814727306	0	1	1425.6136180192697793	0	NaN	NaN	0	1	1	0	1	0
4	1	2	59	9169	2757	0.73114624200388789177	1	1	1762.4444889952428639	0	15	NaN	1	1	0	1	2	0
4	1	2	60	62732	2704	0.7311925393296405673	0	1	1200.3902109863702208	0	NaN	NaN	0	1	1	0	1	0
4	1	2	61	10743	8634	0.73123883665539324284	1	1	1857.6615140191279352	0	104	NaN	1	1	0	1	2	0
4	1	2	62	53114	4900	0.73128502489998936653	0	1	1161.7628860112745315	0	NaN	NaN	0	1	1	0	1	0
4	1	3	1	11062	7336	0.7327897555660456419	0	1	977.30260301614180207	0	NaN	NaN	0	1	1	0	1	0
4	1	3	2	70336	970	0.7328360570827499032	0	1	2053.0041790043469518	0	NaN	NaN	0	1	1	0	1	0
4	1	3	3	10899	4229	0.732882343465462327	0	0	1830.1034159958362579	0	NaN	NaN	0	0	0	1	2	0
4	1	3	4	52543	3770	0.73292863962706178427	0	1	980.34943299717269838	0	NaN	NaN	0	1	1	0	1	0
4	1	3	5	26306	3284	0.73297493101563304663	0	1	1042.9570580017752945	0	NaN	NaN	0	1	1	0	1	0
4	1	3	6	60712	6316	0.73302122531458735466	0	1	1683.298899995861575	0	NaN	NaN	0	1	1	0	1	0
4	1	3	7	5481	1266	0.7330675243865698576	0	1	2239.2492330109234899	0	NaN	NaN	0	1	1	0	1	0
4	1	3	8	36577	479	0.73311381821986287832	0	1	1717.780483013484627	0	NaN	NaN	0	1	1	0	1	0
4	1	3	9	34780	6277	0.73316010739654302597	0	1	1270.7735809963196516	0	NaN	NaN	0	1	1	0	1	0
4	1	3	10	33778	9754	0.73320640157908201218	0	1	1472.2635429934598505	0	NaN	NaN	0	1	1	0	1	0
4	1	3	11	11912	7300	0.73329899564851075411	0	1	1132.832083007087931	0	NaN	NaN	0	1	1	0	1	0
4	1	3	12	26725	1104	0.73334528063423931599	0	1	1311.0847840143833309	0	NaN	NaN	0	1	1	0	1	0
4	1	3	13	35882	7313	0.73339158471208065748	0	1	1418.8616200117394328	0	NaN	NaN	0	1	1	0	1	0
4	1	3	14	59920	3250	0.73343787458725273609	0	1	1212.3363139980938286	0	NaN	NaN	0	1	1	0	1	0
4	1	3	15	70364	6726	0.73348417133092880249	0	1	1129.0720969846006483	0	NaN	NaN	0	1	1	0	1	0
4	1	3	16	2147	8054	0.73353045876137912273	0	1	1303.1079669890459627	0	NaN	NaN	0	1	1	0	1	0
4	1	3	17	7471	7613	0.73357675701845437288	0	1	1558.4928900061640888	0	NaN	NaN	0	1	1	0	1	0
4	1	3	18	71099	6236	0.73362305748742073774	0	1	1244.2101560009177774	0	NaN	NaN	0	1	1	0	1	0
4	1	3	19	60278	2259	0.73366934654768556356	0	1	1190.7659870048519224	0	NaN	NaN	0	1	1	0	1	0
4	1	3	20	64311	3968	0.73371563514228910208	0	1	2492.7112669975031167	0	NaN	NaN	0	1	1	0	1	0
4	1	3	21	65739	2980	0.73376193095464259386	0	1	1289.2038209829479456	0	NaN	NaN	0	1	1	0	1	0
4	1	3	22	1231	9718	0.73380823375191539526	0	1	1466.4749949879478663	0	NaN	NaN	0	1	1	0	1	0
4	1	3	23	38612	1550	0.7338545237435027957	0	1	1802.2604750003665686	0	NaN	NaN	0	1	1	0	1	0
4	1	3	24	65739	2980	0.73390081874094903469	1	1	905.30480700545012951	0	2	NaN	1	1	0	1	2	0
4	1	3	25	55833	6274	0.73399334540590643883	0	1	2224.6477870212402195	0	NaN	NaN	0	1	1	0	1	0
4	1	3	26	1947	6666	0.7340396450599655509	0	1	1734.5763679768424481	0	NaN	NaN	0	1	1	0	1	0
4	1	3	27	33310	3580	0.73408594110514968634	0	0	1249.1662509855814278	0	NaN	NaN	0	0	0	1	2	0
4	1	3	28	57047	791	0.73413223878014832735	0	1	1183.0138660152442753	0	NaN	NaN	0	1	1	0	1	0
4	1	3	29	29186	7771	0.73417853203136473894	1	1	947.57968600606545806	0	99	NaN	1	1	0	1	2	0
4	1	3	30	36999	7985	0.73422483366448432207	1	1	1362.6055110071320087	0	55	NaN	1	1	0	1	2	0
4	1	3	31	43041	5651	0.73427112994249910116	0	1	1013.5676340141799301	0	NaN	NaN	0	1	1	0	1	0
4	1	3	32	61166	4786	0.73431742843240499496	0	1	1597.4329280143138021	0	NaN	NaN	0	1	1	0	1	0
4	1	3	33	14040	5910	0.73436372634023427963	0	1	2045.0057900161482394	0	NaN	NaN	0	1	1	0	1	0
4	1	3	34	18799	6588	0.7344100242480635643	0	1	1706.8801290006376803	0	NaN	NaN	0	1	1	0	1	0
4	1	3	35	27266	5925	0.73445631214417517185	0	1	2066.4508110203314573	0	NaN	NaN	0	1	1	0	1	0
4	1	3	36	9090	5699	0.73454890982247889042	0	1	1672.0948059810325503	0	NaN	NaN	0	1	1	0	1	0
4	1	3	37	25787	3719	0.73459521634504199028	0	1	1216.726031998405233	0	NaN	NaN	0	1	1	0	1	0
4	1	3	38	23532	5440	0.73464143194723874331	0	1	1853.93744200700894	0	NaN	NaN	0	1	1	0	1	0
4	1	3	39	40856	9470	0.73468772799242287874	0	1	1131.9357090105768293	0	NaN	NaN	0	1	1	0	1	0
4	1	3	40	51492	1330	0.73473402217496186495	0	1	1966.3230589940212667	0	NaN	NaN	0	1	1	0	1	0
4	1	3	41	54805	8935	0.7347803118173032999	0	1	2457.6860480010509491	0	NaN	NaN	0	1	1	0	1	0
4	1	3	42	7660	80	0.73482660716399550438	0	1	1530.9056569822132587	0	NaN	NaN	0	1	1	0	1	0
4	1	3	43	65556	2159	0.73487289994955062866	0	1	1710.9809030080214143	0	NaN	NaN	0	1	1	0	1	0
4	1	3	44	54282	1866	0.73491920100059360266	0	1	1447.3140689951833338	0	NaN	NaN	0	1	1	0	1	0
4	1	3	45	21177	5965	0.73501178622245788574	0	1	1715.3450849873479456	0	NaN	NaN	0	1	1	0	1	0
4	1	3	46	62563	7512	0.7350580758647993207	0	1	1614.1137719969265163	0	NaN	NaN	0	1	1	0	1	0
4	1	3	47	6057	4025	0.73510437936056405306	0	1	1176.558751001721248	0	NaN	NaN	0	1	1	0	1	0
4	1	3	48	6057	4025	0.73515066900290548801	1	1	1335.8792189974337816	0	0	NaN	1	1	0	1	2	0
4	1	3	49	30374	403	0.73519696434959769249	0	1	2636.7021920159459114	0	NaN	NaN	0	1	1	0	1	0
4	1	3	50	41759	1665	0.73524315317627042532	0	1	1706.1526489851530641	0	NaN	NaN	0	1	1	0	1	0
4	1	3	51	9162	9667	0.73528944642748683691	0	1	1768.8692290103062987	0	NaN	NaN	0	1	1	0	1	0
4	1	3	52	25960	340	0.73533574084285646677	0	1	1653.2637490017805248	0	NaN	NaN	0	1	1	0	1	0
4	1	3	53	65576	6692	0.73538203362841159105	0	1	2003.0788519943598658	0	NaN	NaN	0	1	1	0	1	0
4	1	3	54	62194	3824	0.73547462699934840202	0	1	1265.0071149982977659	0	NaN	NaN	0	1	1	0	1	0
4	1	3	55	171	1160	0.73552091221790760756	0	1	1304.4910099997650832	0	NaN	NaN	0	1	1	0	1	0
4	1	3	56	50029	7046	0.73556721024215221405	1	1	1818.1600760144647211	0	121	NaN	1	1	0	1	2	0
4	1	3	57	62315	7852	0.73561350209638476372	0	1	1227.6617659954354167	0	NaN	NaN	0	1	1	0	1	0
4	1	3	58	703	5291	0.73565980617422610521	0	1	2301.7248779942747205	0	NaN	NaN	0	1	1	0	1	0
4	1	3	59	67458	3595	0.73570609232410788536	0	1	1879.5777620107401162	0	NaN	NaN	0	1	1	0	1	0
4	1	3	60	62059	2325	0.73575238697230815887	0	1	2361.510543996701017	0	NaN	NaN	0	1	1	0	1	0
4	1	3	61	36073	4285	0.73579868173692375422	0	1	1874.9149530194699764	0	NaN	NaN	0	1	1	0	1	0
4	1	3	62	49303	8561	0.73584497231058776379	0	1	1961.6220729949418455	0	NaN	NaN	0	1	1	0	1	0
4	1	3	63	60287	3014	0.73589127336163073778	1	1	1290.6301679904572666	0	95	NaN	1	1	0	1	2	0
4	1	4	1	30374	403	0.73739042365923523903	1	1	1327.1429860033094883	0	14	NaN	1	1	0	1	2	0
4	1	4	2	44981	612	0.73743672214914113283	1	1	2206.8658959760796279	0	153	NaN	1	1	0	1	2	0
4	1	4	3	16461	4687	0.73748301027808338404	0	0	2217.4816450278740376	0	NaN	NaN	0	0	0	1	2	0
4	1	4	4	58570	9425	0.7375293185468763113	1	1	1641.6462030028924346	0	170	NaN	1	1	0	1	2	0
4	1	4	5	59386	7750	0.73757559317164123058	0	1	1718.1388640019576997	0	NaN	NaN	0	1	1	0	1	0
4	1	4	6	17978	3194	0.73762190341949462891	0	1	1091.8164199974853545	0	NaN	NaN	0	1	1	0	1	0
4	1	4	7	32790	2628	0.73766818689182400703	0	1	1178.5922999843023717	0	NaN	NaN	0	1	1	0	1	0
4	1	4	8	27269	9722	0.73771448677871376276	0	1	1415.1891189976595342	0	NaN	NaN	0	1	1	0	1	0
4	1	4	9	49303	8561	0.73776077025104314089	1	1	803.62728799809701741	0	9	NaN	1	1	0	1	2	0
4	1	4	10	4953	2670	0.73780708492267876863	0	1	1134.6418009779881686	0	NaN	NaN	0	1	1	0	1	0
4	1	4	11	39739	5109	0.73789966781623661518	0	1	1104.4862400158308446	0	NaN	NaN	0	1	1	0	1	0
4	1	4	12	45444	3457	0.73794595361687242985	0	1	1936.0364119929727167	0	NaN	NaN	0	1	1	0	1	0
4	1	4	13	44956	9972	0.73799224791582673788	0	1	1817.0494929945562035	0	NaN	NaN	0	1	1	0	1	0
4	1	4	14	65415	899	0.73803853464778512716	0	1	1771.9286239880602807	0	NaN	NaN	0	1	1	0	1	0
4	1	4	15	35679	5741	0.73808484454639256001	0	1	1149.2250390001572669	0	NaN	NaN	0	1	1	0	1	0
4	1	4	16	65852	3831	0.73813113081268966198	0	1	2488.4475099970586598	0	NaN	NaN	0	1	1	0	1	0
4	1	4	17	40086	3799	0.73817742406390607357	0	1	1583.8861130177974701	0	NaN	NaN	0	1	1	0	1	0
4	1	4	18	43966	2517	0.73822372104041278362	0	1	1359.4986169773619622	0	NaN	NaN	0	1	1	0	1	0
4	1	4	19	71405	6504	0.73827001312747597694	0	0	2117.510380019666627	0	NaN	NaN	0	0	0	1	2	0
4	1	4	20	51168	3548	0.73836260405369102955	0	1	1223.6682020011357963	0	NaN	NaN	0	1	1	0	1	0
4	1	4	21	45818	6399	0.73840889031998813152	0	1	1917.2669590043369681	0	NaN	NaN	0	1	1	0	1	0
4	1	4	22	37232	3095	0.7384551886934787035	0	1	1429.449150018626824	0	NaN	NaN	0	1	1	0	1	0
4	1	4	23	60739	9021	0.73850147880148142576	0	1	2490.2172709989827126	0	NaN	NaN	0	1	1	0	1	0
4	1	4	24	62922	9121	0.73854776960797607899	0	1	1506.2440340116154402	0	NaN	NaN	0	1	1	0	1	0
4	1	4	25	62315	7852	0.7385940625099465251	1	1	870.28752299374900758	0	30	NaN	1	1	0	1	2	0
4	1	4	26	31497	1108	0.73864036647137254477	1	1	1457.5613450142554939	0	109	NaN	1	1	0	1	2	0
4	1	4	27	48734	8441	0.73868665623012930155	0	1	946.7892250104341656	0	NaN	NaN	0	1	1	0	1	0
4	1	4	28	31257	9826	0.7387329458724707365	0	1	1526.8345939985010773	0	NaN	NaN	0	1	1	0	1	0
4	1	4	29	7730	7559	0.73877924005500972271	0	1	1465.0868850003462285	0	NaN	NaN	0	1	1	0	1	0
4	1	4	30	49856	2880	0.73887173202820122242	0	1	1989.7117219807114452	0	NaN	NaN	0	1	1	0	1	0
4	1	4	31	60077	9949	0.73891802830621600151	0	1	1757.1667699958197773	0	NaN	NaN	0	1	1	0	1	0
4	1	4	32	53367	7441	0.73896432365290820599	1	1	1059.6269200032111257	0	196	NaN	1	1	0	1	2	0
4	1	4	33	38418	4751	0.73901062179356813431	0	1	1741.3807130069471896	0	NaN	NaN	0	1	1	0	1	0
4	1	4	34	43617	5679	0.73905691597610712051	0	1	2049.1911559947766364	0	NaN	NaN	0	1	1	0	1	0
4	1	4	35	36173	9865	0.7391032001469284296	1	1	1009.8629429994616657	0	133	NaN	1	1	0	1	2	0
4	1	4	36	17363	1645	0.73914949723985046148	0	1	3441.904779989272356	0	NaN	NaN	0	1	1	0	1	0
4	1	4	37	5481	1266	0.73919579305220395327	1	1	2506.4006500178948045	0	92	NaN	1	1	0	1	2	0
4	1	4	38	46006	1549	0.73924209491815418005	0	1	2076.762356999097392	0	NaN	NaN	0	1	1	0	1	0
4	1	4	39	10899	4229	0.73928838444408029318	1	1	1526.8506709835492074	0	98	NaN	1	1	0	1	2	0
4	1	4	40	41261	9562	0.73933468095492571592	0	1	2055.0652529927901924	0	NaN	NaN	0	1	1	0	1	0
4	1	4	41	15903	6187	0.73942726885434240103	0	1	1903.1380579981487244	0	NaN	NaN	0	1	1	0	1	0
4	1	4	42	12591	8748	0.73947355465497821569	1	0	2750.00332499621436	0	187	NaN	1	0	1	0	1	0
4	1	4	43	40059	8374	0.73951985023450106382	0	1	2218.0288700037635863	0	NaN	NaN	0	1	1	0	1	0
4	1	4	44	42172	559	0.7395661473274230957	0	1	2056.9936069950927049	0	NaN	NaN	0	1	1	0	1	0
4	1	4	45	5603	53	0.73961243813391774893	0	1	2293.4244899952318519	0	NaN	NaN	0	1	1	0	1	0
4	1	4	46	45728	8043	0.73965874034911394119	0	1	2165.118706994690001	0	NaN	NaN	0	1	1	0	1	0
4	1	4	47	43424	8972	0.73970503429882228374	0	1	3014.7792419884353876	0	NaN	NaN	0	1	1	0	1	0
4	1	4	48	29167	5860	0.73975132580380886793	0	1	1207.0246060029603541	0	NaN	NaN	0	1	1	0	1	0
4	1	4	49	47272	3756	0.73979761870577931404	0	1	1444.8265709797851741	0	NaN	NaN	0	1	1	0	1	0
4	1	4	50	39434	4734	0.73984391253907233477	0	1	1385.4610150156076998	0	NaN	NaN	0	1	1	0	1	0
4	1	4	51	13962	8985	0.73989020404405891895	0	1	1783.4472020040266216	0	NaN	NaN	0	1	2	0	1	0
4	1	4	52	36118	5862	0.73993649613112211227	0	1	1306.1567780096083879	0	NaN	NaN	0	1	1	0	1	0
4	1	4	53	3253	1681	0.74002908484544605017	0	1	1276.4085330127272755	0	NaN	NaN	0	1	1	0	1	0
4	1	4	54	2147	8054	0.74007538147270679474	1	1	992.78397599118761718	0	100	NaN	1	1	0	1	2	0
4	1	4	55	51728	1983	0.74012167821638286114	0	1	2233.0526720033958554	0	NaN	NaN	0	1	1	0	1	0
4	1	4	56	6418	7973	0.74016796622890979052	0	1	1853.7280549935530871	0	NaN	NaN	0	1	1	0	1	0
4	1	4	57	10988	2469	0.740214167395606637	0	1	1755.756249011028558	0	NaN	NaN	0	1	1	0	1	0
4	1	4	58	21602	265	0.74026045994833111763	0	1	1438.5636509978212416	0	NaN	NaN	0	1	1	0	1	0
4	1	4	59	62303	860	0.74030676158145070076	0	1	1402.6403850002679974	0	NaN	NaN	0	1	1	0	1	0
4	1	4	60	29305	3951	0.74035305075813084841	0	1	1463.431415002560243	0	NaN	NaN	0	1	1	0	1	0
4	1	4	61	25554	3444	0.74039935122709721327	1	1	1323.9943660155404359	0	167	NaN	1	1	0	1	2	0
4	1	4	62	5302	45	0.7404456334188580513	0	1	1677.7219430077821016	0	NaN	NaN	0	1	1	0	1	0
4	1	5	1	15493	187	0.74311372498050332069	0	0	1615.5501279863528907	0	NaN	NaN	0	0	0	1	2	0
4	1	5	2	22307	6960	0.74316003639250993729	0	1	2296.6680429817643017	1	NaN	NaN	0	1	1	1	1	0
4	1	5	3	16420	9857	0.7432063219603151083	0	1	1396.3347079989034683	0	NaN	NaN	0	1	1	0	1	0
4	1	5	4	36893	9133	0.74325263139326125383	0	1	1362.7292579913046211	0	NaN	NaN	0	1	1	0	1	0
4	1	5	5	27915	8620	0.74329891428351402283	0	1	1136.1943410011008382	0	NaN	NaN	0	1	1	0	1	0
4	1	5	6	25288	323	0.74334522651042789221	0	1	1235.7997660001274198	0	NaN	NaN	0	1	1	0	1	0
4	1	5	7	25876	7974	0.74339150881860405207	0	1	1484.2102139955386519	0	NaN	NaN	0	1	1	0	1	0
4	1	5	8	43523	3060	0.74343782302457839251	0	1	1358.2995729811955243	0	NaN	NaN	0	1	1	0	1	0
4	1	5	9	7767	3271	0.74348411103710532188	0	1	1267.2525050002150238	0	NaN	NaN	0	1	1	0	1	0
4	1	5	10	31405	5081	0.74353041744325309992	0	1	1069.4539079850073904	0	NaN	NaN	0	1	1	0	1	0
4	1	5	11	8871	4741	0.74362301058135926723	0	1	1393.7872749811504036	0	NaN	NaN	0	1	1	0	1	0
4	1	5	12	34549	1085	0.74366930220276117325	0	1	1452.7790260035544634	0	NaN	NaN	0	1	1	0	1	0
4	1	5	13	19843	6570	0.74371560930740088224	0	1	1338.082909001968801	0	NaN	NaN	0	1	1	0	1	0
4	1	5	14	39434	4734	0.74376189825125038624	1	1	1272.2326480143237859	0	25	NaN	1	1	0	1	2	0
4	1	5	15	21602	265	0.7438080902211368084	1	1	1137.1041510137729347	0	18	NaN	1	1	0	1	2	0
4	1	5	16	65739	2980	0.7438544851029291749	1	1	1255.5126360093709081	0	116	119	1	1	0	1	2	0
4	1	5	17	51719	6150	0.74390067544300109148	0	1	1233.9559170068241656	0	NaN	NaN	0	1	1	0	1	0
4	1	5	18	6559	66	0.7439469675300642848	0	1	2069.3683489807881415	0	NaN	NaN	0	1	1	0	1	0
4	1	5	19	18356	5550	0.74399320059455931187	0	1	1918.5926520149223506	0	NaN	NaN	0	1	1	0	1	0
4	1	5	20	34249	6106	0.74403945577796548605	0	1	2088.1022579851560295	0	NaN	NaN	0	1	1	0	1	0
4	1	5	21	6418	7973	0.74408575636334717274	1	1	1034.7984809777699411	0	26	NaN	1	1	0	1	2	0
4	1	5	22	61093	4401	0.74413204262964427471	0	1	2031.5072249795775861	0	NaN	NaN	0	1	1	0	1	0
4	1	5	23	63811	2727	0.74422462284564971924	0	1	2145.0083770032506436	0	NaN	NaN	0	1	1	0	1	0
4	1	5	24	13181	6036	0.74427091935649514198	0	1	1492.3418019898235798	0	NaN	NaN	0	1	1	0	1	0
4	1	5	25	52324	7741	0.74431721691507846117	0	1	2335.5741029954515398	0	NaN	NaN	0	1	1	0	1	0
4	1	5	26	16608	2387	0.74436350970063358545	0	1	1658.6907710006926209	0	NaN	NaN	0	1	1	0	1	0
4	1	5	27	66021	7130	0.74440980574581772089	0	1	1639.6393850154709071	0	NaN	NaN	0	1	1	0	1	0
4	1	5	28	47778	6647	0.74445610202383249998	0	1	1885.2533510071225464	0	NaN	NaN	0	1	1	0	1	0
4	1	5	29	27266	5925	0.74450239643920212984	1	1	1425.3839630109723657	0	118	NaN	1	1	0	1	2	0
4	1	5	30	48254	3686	0.74454868433531373739	0	1	1481.5554410160984844	0	NaN	NaN	0	1	1	0	1	0
4	1	5	31	70336	970	0.74459497944917529821	1	1	1241.1254899925552309	0	153	NaN	1	1	0	1	2	0
4	1	5	32	16724	201	0.74464128061663359404	0	1	1925.7080359966494143	0	NaN	NaN	0	1	1	0	1	0
4	1	5	33	16461	4687	0.74468757153954356909	1	1	1541.4747729955706745	0	91	NaN	1	1	0	1	2	0
4	1	5	34	16608	2387	0.74478015268687158823	1	1	1175.7330420077778399	0	7	NaN	1	1	0	1	2	0
4	1	5	35	38504	6349	0.7448264505947008729	0	1	2541.1194500047713518	0	NaN	NaN	0	1	1	0	1	0
4	1	5	36	45444	3457	0.74487274466082453728	1	1	1788.8885509746614844	0	85	NaN	1	1	0	1	2	0
4	1	5	37	23413	5237	0.74491903535090386868	0	1	2215.0348850118461996	0	NaN	NaN	0	1	1	0	1	0
4	1	5	38	23413	5237	0.74496533710043877363	1	1	1180.0530040054582059	0	0	NaN	1	1	0	1	2	0
4	1	5	39	67782	5169	0.74501163419336080551	1	1	1284.9846970057114959	0	180	222	1	1	0	1	2	0
4	1	5	40	48979	2284	0.74505792488344013691	0	1	1781.7942590045277029	0	NaN	NaN	0	1	2	0	1	0
4	1	5	41	3648	4210	0.74510421883314847946	0	1	2141.1883380205836147	0	NaN	NaN	0	1	1	0	1	0
4	1	5	42	48238	3597	0.74515050812624394894	0	1	1825.1488070236518979	0	NaN	NaN	0	1	1	0	1	0
4	1	5	43	4331	2768	0.74524309998378157616	0	1	1520.6272700161207467	0	NaN	NaN	0	1	1	0	1	0
4	1	5	44	40801	5714	0.74528930045198649168	0	1	1907.2682130208704621	0	NaN	NaN	0	1	1	0	1	0
4	1	5	45	62315	7852	0.74533558753319084644	1	1	1187.7354820026084781	0	81	112	1	1	0	1	2	0
4	1	5	46	139	9788	0.74538187996950000525	0	1	1753.5741610045079142	0	NaN	NaN	0	1	1	0	1	0
4	1	5	47	64032	9094	0.74542818125337362289	0	1	1983.5545539972372353	0	NaN	NaN	0	1	1	0	1	0
4	1	5	48	21335	2607	0.74547446845099329948	0	1	1770.9208549931645393	0	NaN	NaN	0	1	1	0	1	0
4	1	5	49	64470	9272	0.74552076857071369886	0	1	1612.1235140017233789	0	NaN	NaN	0	1	1	0	1	0
4	1	5	50	47813	5192	0.74556705646682530642	0	1	1762.1651429799385369	0	NaN	NaN	0	1	1	0	1	0
4	1	5	51	25393	7185	0.7456133565865457058	0	1	2003.6805190029554069	0	NaN	NaN	0	1	1	0	1	0
4	1	5	52	47080	6581	0.74565965333022177219	0	1	1124.2944159894250333	0	NaN	NaN	0	1	1	0	1	0
4	1	5	53	59468	1492	0.74570594215765595436	0	1	1858.4897470136638731	0	NaN	NaN	0	1	1	0	1	0
4	1	5	54	48592	2196	0.74575223308056592941	0	1	2103.9111930003855377	0	NaN	NaN	0	1	1	0	1	0
4	1	5	55	20646	7998	0.74584482249338179827	0	1	1618.1420330249238759	0	NaN	NaN	0	1	1	0	1	0
4	1	5	56	40576	531	0.74589111562818288803	0	1	1723.989038000581786	0	NaN	NaN	0	1	1	0	1	0
4	1	5	57	17346	6520	0.74593741807620972395	0	1	1610.1329349912703037	0	NaN	NaN	0	1	1	0	1	0
4	1	5	58	67737	3898	0.74598371214233338833	0	1	1507.1927550015971065	0	NaN	NaN	0	1	1	0	1	0
4	1	5	59	38722	9743	0.74603000632487237453	0	1	1803.063525992911309	0	NaN	NaN	0	1	1	0	1	0
4	1	5	60	17808	2430	0.74607630050741136074	0	1	1443.9113590051420033	0	NaN	NaN	0	1	1	0	1	0
4	1	5	61	65408	3694	0.74612258665729314089	1	1	1386.4461990015115589	0	214	NaN	1	1	0	1	2	0
4	1	5	62	51168	3548	0.74616888770833611488	1	1	1191.3708189968019724	0	103	NaN	1	1	0	1	2	0
4	1	5	63	65542	1939	0.74621518643107265234	0	1	1649.3918120104353875	0	NaN	NaN	0	1	1	0	1	0
4	1	6	1	35633	1129	0.74765087070409208536	0	1	1980.1622910017613322	0	NaN	NaN	0	1	1	0	1	0
4	1	6	2	3206	3996	0.74769719340838491917	0	1	1423.3408969885203987	0	NaN	NaN	0	1	1	0	1	0
4	1	6	3	20645	5160	0.74774346244521439075	0	1	1159.3907740025315434	0	NaN	NaN	0	1	1	0	1	0
4	1	6	4	35892	2539	0.74778976209927350283	0	1	1033.5919980134349316	0	NaN	NaN	0	1	1	0	1	0
4	1	6	5	18640	5155	0.74783605535048991442	0	1	1154.3521280109416693	0	NaN	NaN	0	1	1	0	1	0
4	1	6	6	29387	3647	0.74788234871812164783	0	0	2377.1960430021863431	0	NaN	NaN	0	0	0	1	2	0
4	1	6	7	71652	7233	0.74792863335460424423	0	1	1416.4529299887362868	0	NaN	NaN	0	1	1	0	1	0
4	1	6	8	28578	5772	0.74797494069207459688	1	1	1835.4716369940433651	0	234	NaN	1	1	0	1	2	0
4	1	6	9	26564	5761	0.74802122346591204405	0	1	1250.0083439808804542	0	NaN	NaN	0	1	1	0	1	0
4	1	6	10	17636	9964	0.74806752603035420179	0	1	1544.5140629890374839	0	NaN	NaN	0	1	1	0	1	0
4	1	6	11	16765	3903	0.74811380787286907434	0	1	1353.8810850004665554	0	NaN	NaN	0	1	1	0	1	0
4	1	6	12	17205	9657	0.74816011951770633459	0	1	2351.9756050081923604	0	NaN	NaN	0	1	1	0	1	0
4	1	6	13	32186	1808	0.74825270334258675575	0	1	1841.6455149999819696	0	NaN	NaN	0	1	1	0	1	0
4	1	6	14	4761	3036	0.74829898937605321407	0	1	1883.6790909990668297	0	NaN	NaN	0	1	1	0	1	0
4	1	6	15	41719	9484	0.74834529310464859009	0	1	1687.395749002462253	0	NaN	NaN	0	1	1	0	1	0
4	1	6	16	6057	4025	0.74839158286340534687	1	1	1267.6100109820254147	0	155	156	1	1	0	1	2	0
4	1	6	17	26633	6068	0.74843788356520235538	0	1	2303.0537649756297469	0	NaN	NaN	0	1	1	0	1	0
4	1	6	18	51762	5418	0.74848417029716074467	0	1	1866.4756299986038357	0	NaN	NaN	0	1	1	0	1	0
4	1	6	19	62297	4005	0.74853046494536101818	0	1	1403.5496650030836463	0	NaN	NaN	0	1	1	0	1	0
4	1	6	20	16373	9960	0.74857675738167017698	0	1	2848.7474010034929961	0	NaN	NaN	0	1	1	0	1	0
4	1	6	21	70364	6726	0.74862306180875748396	1	1	2201.2751759903039783	0	193	NaN	1	1	0	1	2	0
4	1	6	22	29062	2504	0.74866933783050626516	0	1	2348.7441210018005222	0	NaN	NaN	0	1	1	0	1	0
4	1	6	23	35174	2735	0.74876193387899547815	0	1	1903.6123109981417656	0	NaN	NaN	0	1	1	0	1	0
4	1	6	24	63795	8174	0.74880822934210300446	0	1	2101.9038170052226633	0	NaN	NaN	0	1	1	0	1	0
4	1	6	25	7031	7260	0.74885452119633555412	0	1	2857.822287012822926	0	NaN	NaN	0	1	1	0	1	0
4	1	6	26	70631	5558	0.74890081537887454033	0	1	1840.5658510164357722	0	NaN	NaN	0	1	1	0	1	0
4	1	6	27	69100	7780	0.74894710746593773365	0	1	1814.3351289909332991	0	NaN	NaN	0	1	1	0	1	0
4	1	6	28	65217	1014	0.74899333762004971504	0	1	2674.0168239921331406	0	NaN	NaN	0	1	1	0	1	0
4	1	6	29	64031	3638	0.74903963494580239058	0	1	2003.0914819799363613	0	NaN	NaN	0	1	1	0	1	0
4	1	6	30	17888	6843	0.74908592854626476765	1	1	1738.4441400063224137	0	240	NaN	1	1	0	1	2	0
4	1	6	31	9854	9313	0.74913223041221499443	0	1	3419.8572489840444177	0	NaN	NaN	0	1	1	0	1	0
4	1	6	32	32185	1702	0.74917851947247982025	0	1	1387.1713490225374699	0	NaN	NaN	0	1	1	0	1	0
4	1	6	33	45596	616	0.74922482704278081656	0	1	1640.4442859929986298	0	NaN	NaN	0	1	1	0	1	0
4	1	6	34	29212	3640	0.74927112320438027382	0	1	1656.8746560078579932	0	NaN	NaN	0	1	1	0	1	0
4	1	6	35	70387	8318	0.74936371017247438431	0	1	1725.127331999829039	0	NaN	NaN	0	1	1	0	1	0
4	1	6	36	64861	9017	0.74941001716069877148	0	1	1428.2761780195869505	0	NaN	NaN	0	1	1	0	1	0
4	1	6	37	38388	9347	0.74945631192531436682	0	1	2128.9190670067910105	0	NaN	NaN	0	1	1	0	1	0
4	1	6	38	58881	5238	0.74950260366313159466	0	1	2050.6820710143074393	0	NaN	NaN	0	1	1	0	1	0
4	1	6	39	55092	6246	0.74954884080216288567	0	1	1467.4700509931426495	0	NaN	NaN	0	1	1	0	1	0
4	1	6	40	17978	3194	0.74959513929206877947	1	1	1101.1195920000318438	0	158	NaN	1	1	0	1	2	0
4	1	6	41	53053	727	0.74964142043609172106	1	1	1124.7343379945959896	0	297	NaN	1	1	0	1	2	0
4	1	6	42	30766	6311	0.74968772579450160265	0	1	1357.1173259988427162	0	NaN	NaN	0	1	1	0	1	0
4	1	6	43	54805	8935	0.74973401858005672693	1	1	1557.5858060037717223	0	189	NaN	1	1	0	1	2	0
4	1	6	44	9918	116	0.74982660729438066483	0	1	2853.8511459773872048	0	NaN	NaN	0	1	1	0	1	0
4	1	6	45	27851	2297	0.74987290054559707642	0	1	2250.8046900038607419	0	NaN	NaN	0	1	1	0	1	0
4	1	6	46	49201	3293	0.74991919042076915503	0	1	2139.3966999894473702	0	NaN	NaN	0	1	1	0	1	0
4	1	6	47	26599	351	0.74996549240313470364	0	0	1172.2399640129879117	0	NaN	NaN	0	0	0	1	2	0
4	1	6	48	10830	2336	0.75001178402453660965	0	1	1134.042833000421524	0	NaN	NaN	0	1	1	0	1	0
4	1	6	49	21602	265	0.75005807727575302124	1	1	989.47927998960949481	0	96	115	1	1	0	1	2	0
4	1	6	50	60077	9949	0.75010437145829200745	1	1	920.48683701432310045	0	143	NaN	1	1	0	1	2	0
4	1	6	51	51762	5418	0.75015065982006490231	1	1	1070.4883610014803708	0	32	NaN	1	1	0	1	2	0
4	1	6	52	30244	6017	0.75019696319941431284	0	1	1612.8283489961177111	0	NaN	NaN	0	1	1	0	1	0
4	1	6	53	9907	8280	0.75028955098241567612	0	0	2050.8614580030553043	0	NaN	NaN	0	0	0	1	2	0
4	1	6	54	19256	9965	0.75033574108965694904	0	1	2886.8363319779746234	0	NaN	NaN	0	1	1	0	1	0
4	1	6	55	68220	8516	0.75038203666917979717	0	1	2569.5744020049460232	0	NaN	NaN	0	1	1	0	1	0
4	1	6	56	2147	8054	0.75042832689359784126	1	1	1017.343172017717734	0	126	227	1	1	0	1	2	0
4	1	6	57	5481	1266	0.7504746242193505168	1	1	1861.2447180203162134	0	144	237	1	1	0	1	2	0
4	1	6	58	65243	8093	0.7505209196824580431	0	1	2169.5037609897553921	0	NaN	NaN	0	1	1	0	1	0
4	1	6	59	24760	8498	0.75056721130385994911	0	1	2669.8878489842172712	0	NaN	NaN	0	1	1	0	1	0
4	1	6	60	10988	2469	0.75061351002659648657	1	1	2065.9181030059698969	0	127	NaN	1	1	0	1	2	0
4	1	6	61	60306	830	0.75065979990176856518	0	1	2105.3707879909779876	0	NaN	NaN	0	1	1	0	1	0
4	1	6	62	55833	6274	0.750706095015630126	1	1	1302.4077939917333424	0	224	NaN	1	1	0	1	2	0
4	1	7	1	63795	8174	0.75290290138218551874	1	1	1356.4770039811264724	0	38	NaN	1	1	0	1	2	0
4	1	7	2	47707	4615	0.75294923281762748957	0	1	3514.8891930002719164	0	NaN	NaN	0	1	1	0	1	0
4	1	7	3	62895	2736	0.75299548148177564144	0	1	1867.5170039932709187	0	NaN	NaN	0	1	1	0	1	0
4	1	7	4	46014	5200	0.75304179766681045294	1	1	1702.2713990008924156	0	291	NaN	1	1	0	1	2	0
4	1	7	5	11425	2330	0.7530880804406479001	0	1	1888.3470160071738064	0	NaN	NaN	0	1	1	0	1	0
4	1	7	6	37601	4470	0.75313438661396503448	0	1	2549.8579659906681627	0	NaN	NaN	0	1	1	0	1	0
4	1	7	7	12080	4068	0.75318066624458879232	1	1	1088.4400359936989844	0	304	NaN	1	1	0	1	2	0
4	1	7	8	26650	5858	0.7532269663643091917	0	1	1162.9506479948759079	0	NaN	NaN	0	1	1	0	1	0
4	1	7	9	52190	1538	0.75327325286343693733	1	1	1057.4828289973083884	0	300	NaN	1	1	0	1	2	0
4	1	7	10	4206	6560	0.7533658371539786458	0	1	2206.6158649977296591	0	NaN	NaN	0	1	1	0	1	0
4	1	7	11	29738	8283	0.75341215019579976797	0	1	1501.7275179852731526	0	NaN	NaN	0	1	1	0	1	0
4	1	7	12	20645	5160	0.75345842388924211264	1	1	1281.1131080088671297	0	70	NaN	1	1	0	1	2	0
4	1	7	13	49201	3293	0.75350472878199070692	1	1	1769.8081110138446093	1	28	NaN	1	1	1	1	2	0
4	1	7	14	21177	5965	0.75355101760942488909	1	1	2070.0142419955227524	0	218	NaN	1	1	0	1	2	0
4	1	7	15	49420	2408	0.75359732459764927626	0	1	2280.5862149980384856	0	NaN	NaN	0	1	1	0	1	0
4	1	7	16	9162	9667	0.75364360387902706861	1	1	1669.8149259900674224	0	214	NaN	1	1	0	1	2	0
4	1	7	17	54282	1866	0.75368991342838853598	1	1	1387.3170619772281498	0	222	NaN	1	1	0	1	2	0
4	1	7	18	49085	3342	0.75373619620222598314	0	1	2305.6356800079811364	0	NaN	NaN	0	1	1	0	1	0
4	1	7	19	65217	1014	0.75378249783534556627	1	1	1454.328499996336177	0	52	NaN	1	1	0	1	2	0
4	1	7	20	1653	7951	0.75387508212588727474	0	1	2942.8202020062599331	0	NaN	NaN	0	1	1	0	1	0
4	1	7	21	38855	4784	0.75392136641312390566	0	1	2118.1670060032047331	0	NaN	NaN	0	1	1	0	1	0
4	1	7	22	19607	5660	0.75396767642814666033	0	1	1572.413632005918771	0	NaN	NaN	0	1	1	0	1	0
4	1	7	23	34071	8315	0.75401396153029054403	0	1	1801.4421109983231872	0	NaN	NaN	0	1	1	0	1	0
4	1	7	24	48650	1098	0.75406026560813188553	0	1	2516.1727669765241444	0	NaN	NaN	0	1	1	0	1	0
4	1	7	25	51037	1431	0.75410645036026835442	0	1	1739.3129830015823245	0	NaN	NaN	0	1	1	0	1	0
4	1	7	26	26650	5858	0.75415274221450090408	1	1	1658.6475720105227083	0	17	NaN	1	1	0	1	2	0
4	1	7	27	33053	2848	0.75419904256705194712	0	1	2073.2347640150692314	0	NaN	NaN	0	1	1	0	1	0
4	1	7	28	4787	36	0.75424533139448612928	0	1	1961.4723430131562054	0	NaN	NaN	0	1	1	0	1	0
4	1	7	29	60892	6866	0.75429162208456546068	0	1	1810.8423930243588984	0	NaN	NaN	0	1	1	0	1	0
4	1	7	30	48650	1098	0.75433792488183826208	1	1	1205.3916579752694815	0	5	NaN	1	1	0	1	2	0
4	1	7	31	34071	8315	0.75438421929720789194	1	1	1046.2398260133340955	0	7	NaN	1	1	0	1	2	0
4	1	7	32	72546	5663	0.75443050323519855738	0	1	1877.6450029981788248	0	NaN	NaN	0	1	1	0	1	0
4	1	7	33	58982	2218	0.75447680638171732426	0	1	2546.405656001297757	0	NaN	NaN	0	1	1	0	1	0
4	1	7	34	26650	5858	0.75456939346622675657	1	1	1566.0244689788669348	0	7	25	1	1	0	1	2	0
4	1	7	35	64470	9272	0.75461568159516900778	1	1	1838.1252770195715129	0	110	NaN	1	1	0	1	2	0
4	1	7	36	67739	8216	0.75466197507921606302	0	1	1421.5851490152999759	0	NaN	NaN	0	1	1	0	1	0
4	1	7	37	52185	7520	0.75470827717799693346	0	1	2034.8085269797593355	0	NaN	NaN	0	1	1	0	1	0
4	1	7	38	6948	5919	0.75475457508582621813	0	1	2201.4008880069013685	0	NaN	NaN	0	1	1	0	1	0
4	1	7	39	71366	2451	0.75480086018797010183	0	1	1688.1342210108414292	0	NaN	NaN	0	1	1	0	1	0
4	1	7	40	19582	9575	0.7548471641493961215	0	1	1281.2530770024750382	0	NaN	NaN	0	1	1	0	1	0
4	1	7	41	11425	2330	0.75489345425739884377	1	1	1365.6423760112375021	0	35	NaN	1	1	0	1	2	0
4	1	7	42	44046	7310	0.75493974797427654266	0	1	2080.2141939930152148	0	NaN	NaN	0	1	1	0	1	0
4	1	7	43	42658	8175	0.75498604087624698877	0	0	1926.8682190158870071	0	NaN	NaN	0	0	0	1	2	0
4	1	7	44	60278	2259	0.75503233144991099834	1	1	2034.8200099833775312	0	274	NaN	1	1	0	1	2	0
4	1	7	45	61093	4401	0.7550786258652806282	1	1	1080.7360290200449526	0	147	NaN	1	1	0	1	2	0
4	1	7	46	65042	3902	0.75517121900338679552	1	1	3759.3047309783287346	1	396	NaN	1	1	1	1	2	0
4	1	7	47	26525	9335	0.75521751365158706903	0	1	1037.8176590020302683	0	NaN	NaN	0	1	1	0	1	0
4	1	7	48	10062	2760	0.75526380434166640043	0	1	2908.4454070252832025	0	NaN	NaN	0	1	1	0	1	0
4	1	7	49	30244	6017	0.75531000527553260326	1	1	1831.7871039907913655	0	58	NaN	1	1	0	1	2	0
4	1	7	50	35569	8170	0.75535629875957965851	0	1	1802.2081440140027553	0	NaN	NaN	0	1	1	0	1	0
4	1	7	51	58470	5262	0.75540258456021547318	0	1	2992.0848819892853498	0	NaN	NaN	0	1	1	0	1	0
4	1	7	52	58470	5262	0.75544887990690767765	1	1	871.60577398026362062	0	0	NaN	1	1	0	1	2	0
4	1	7	53	10830	2336	0.75549518142361193895	1	1	1227.5597199914045632	0	66	NaN	1	1	0	1	2	0
4	1	7	54	28968	3862	0.75554146664217114449	0	1	2003.3357850043103099	0	NaN	NaN	0	1	1	0	1	0
4	1	7	55	54778	8482	0.75563405989669263363	0	1	2747.8451509959995747	0	NaN	NaN	0	1	1	0	1	0
4	1	7	56	29306	9525	0.75568035559263080359	0	1	1713.0838230077642947	0	NaN	NaN	0	1	1	0	1	0
4	1	7	57	52673	3450	0.75572665268555283546	0	1	1630.3027830144856125	0	NaN	NaN	0	1	1	0	1	0
4	1	7	58	65576	6692	0.7557729426771402359	1	1	926.05087699485011399	0	254	NaN	1	1	0	1	2	0
4	1	7	59	19182	230	0.75581923872232437134	0	0	2687.5299609964713454	0	NaN	NaN	0	0	0	1	2	0
4	1	7	60	12747	5967	0.75586553418543189764	0	1	2229.1033510118722916	0	NaN	NaN	0	1	1	0	1	0
4	1	7	61	46236	7856	0.7559118286008015275	0	1	3483.4891500067897141	0	NaN	NaN	0	1	1	0	1	0
4	1	7	62	18924	8586	0.75595811870880424976	0	1	2517.1676519967149943	0	NaN	NaN	0	1	1	0	1	0
4	1	7	63	66021	7130	0.75600441033020615578	1	1	1161.9090480089653283	0	160	NaN	1	1	0	1	2	0
4	1	8	1	27913	8109	0.75751021609175950289	0	0	2467.430286982562393	0	NaN	NaN	0	0	0	1	2	0
4	1	8	2	6559	66	0.75755652261432260275	1	1	1185.9019219991751015	0	171	NaN	1	1	0	1	2	0
4	1	8	3	72081	992	0.75760280736722052097	0	1	2136.4209380117245018	0	NaN	NaN	0	1	1	0	1	0
4	1	8	4	17566	2986	0.75764911121223121881	0	1	2301.9526610150933266	0	NaN	NaN	0	1	1	0	1	0
4	1	8	5	47785	1192	0.75769538979511708021	0	1	2507.3748670110944659	0	NaN	NaN	0	1	1	0	1	0
4	1	8	6	39797	5568	0.75774169689975678921	0	1	2308.3256440004333854	0	NaN	NaN	0	1	1	0	1	0
4	1	8	7	1722	2203	0.7577878846786916256	0	1	1641.7529079772066325	0	NaN	NaN	0	1	1	0	1	0
4	1	8	8	25393	7185	0.7578341849148273468	1	1	1006.4377819944638759	0	144	NaN	1	1	0	1	2	0
4	1	8	9	28259	4001	0.75788047222886234522	0	1	1391.990367992548272	0	NaN	NaN	0	1	1	0	1	0
4	1	8	10	36073	4285	0.75797305686865001917	1	0	1079.3171589903067797	0	261	NaN	1	0	1	0	1	0
4	1	8	11	36068	475	0.75801935908384621143	0	1	2437.5922199978958815	0	NaN	NaN	0	1	1	0	1	0
4	1	8	12	11062	7336	0.75806564535014331341	1	1	1782.3332460247911513	0	323	NaN	1	1	0	1	2	0
4	1	8	13	66476	1800	0.75811193790286779404	0	1	2213.5777490038890392	0	NaN	NaN	0	1	1	0	1	0
4	1	8	14	62922	9121	0.7581582413986325264	1	1	1534.0369390032719821	0	239	NaN	1	1	0	1	2	0
4	1	8	15	46451	7428	0.75820453930646181107	0	NaN	NaN	NaN	NaN	NaN	0	NaN	0	0	NaN	0
4	1	8	16	72546	5663	0.75825082790106534958	1	1	1382.0998890150804073	0	46	NaN	1	1	0	1	2	0
4	1	8	17	27263	6579	0.75829711498226970434	0	1	1791.5902090026065707	0	NaN	NaN	0	1	1	0	1	0
4	1	8	18	42953	7917	0.75834341079462319613	0	1	1730.9815759945195168	0	NaN	NaN	0	1	1	0	1	0
4	1	8	19	47272	3756	0.75838971580378711224	1	1	1177.8154459898360074	0	219	NaN	1	1	0	1	2	0
4	1	8	20	34249	6106	0.75848230021074414253	1	0	1210.647736006649211	0	187	NaN	1	0	1	0	1	0
4	1	8	21	49312	2186	0.75852859474252909422	0	1	2158.1120920018292964	0	NaN	NaN	0	1	1	0	1	0
4	1	8	22	47707	4615	0.75857487821485847235	1	1	1179.3367050122469664	0	82	NaN	1	1	0	1	2	0
4	1	8	23	45484	4306	0.75862117554061114788	0	1	1602.2027849976439029	0	NaN	NaN	0	1	1	0	1	0
4	1	8	24	14087	5523	0.75866747123654931784	0	1	2363.2637480041012168	0	NaN	NaN	0	1	1	0	1	0
4	1	8	25	25876	7974	0.75871377182193100452	1	1	1137.5438570103142411	0	205	NaN	1	1	0	1	2	0
4	1	8	26	72780	1196	0.75876006030011922121	0	1	1571.6088020126335323	0	NaN	NaN	0	1	1	0	1	0
4	1	8	27	1231	9718	0.75880635145585983992	1	1	1062.1615479758474976	0	317	NaN	1	1	0	1	2	0
4	1	8	28	35518	9244	0.75885265215765684843	0	1	2415.8587120182346553	0	NaN	NaN	0	1	1	0	1	0
4	1	8	29	16632	2604	0.75889894715510308743	0	1	2862.7678790071513504	0	NaN	NaN	0	1	1	0	1	0
4	1	8	30	35655	4793	0.75894524040631949902	0	1	1745.6726389937102795	0	NaN	NaN	0	1	1	0	1	0
4	1	8	31	71754	988	0.75903782900422811508	0	1	2896.3187839835882187	0	NaN	NaN	0	1	1	0	1	0
4	1	8	32	30380	5894	0.75908402760978788137	0	1	1827.61993000167422	0	NaN	NaN	0	1	1	0	1	0
4	1	8	33	5882	1732	0.75913031352683901787	0	0	3023.8466339942533523	0	NaN	NaN	0	0	0	1	2	0
4	1	8	34	63687	6066	0.75917660677805542946	0	0	3359.6544280007947236	0	NaN	NaN	0	0	0	1	2	0
4	1	8	35	1804	7020	0.75922290992457419634	0	1	1364.3039269954897463	0	NaN	NaN	0	1	1	0	1	0
4	1	8	36	33503	9798	0.75926919793710112572	0	1	2373.7519689893815666	0	NaN	NaN	0	1	1	0	1	0
4	1	8	37	72146	1771	0.75931549316737800837	0	1	2181.9928159820847213	0	NaN	NaN	0	1	1	0	1	0
4	1	8	38	55865	5382	0.75936178280971944332	0	1	2307.2902590211015195	0	NaN	NaN	0	1	1	0	1	0
4	1	8	39	49683	8917	0.75940808455925434828	0	1	2008.3769999910145998	0	NaN	NaN	0	1	1	0	1	0
4	1	8	40	30766	6311	0.75945437082555145025	1	1	1058.6127220012713224	0	122	NaN	1	1	0	1	2	0
4	1	8	41	36560	5514	0.75950067187659442425	0	1	1832.9418299836106598	0	NaN	NaN	0	1	1	0	1	0
4	1	8	42	47051	3924	0.75959326326847076416	0	1	2265.7172329782042652	0	NaN	NaN	0	1	1	0	1	0
4	1	8	43	16632	2604	0.75963955349288880825	1	1	1491.8026660161558539	0	13	NaN	1	1	0	1	2	0
4	1	8	44	47785	1192	0.75968584371730685234	1	1	1022.5995130022056401	0	38	NaN	1	1	0	1	2	0
4	1	8	45	17342	2755	0.75973214488476514816	0	1	2463.7858770147431642	0	NaN	NaN	0	1	1	0	1	0
4	1	8	46	13158	9761	0.7597784422105178237	0	1	2469.8730959789827466	0	NaN	NaN	0	1	1	0	1	0
4	1	8	47	51328	1968	0.75982472824398428202	0	1	1065.3986810066271573	0	NaN	NaN	0	1	1	0	1	0
4	1	8	48	7730	7559	0.75987102300859987736	1	1	1365.1330349966883659	0	268	NaN	1	1	0	1	2	0
4	1	8	49	70147	1551	0.75991731975227594376	0	0	1384.3440419877879322	0	NaN	NaN	0	0	0	1	2	0
4	1	8	50	1947	6666	0.7599636149825528264	1	1	1458.0725780106149614	0	336	NaN	1	1	0	1	2	0
4	1	8	51	35569	8170	0.76000990148168057203	1	1	893.79412599373608828	0	63	NaN	1	1	0	1	2	0
4	1	8	52	47272	3756	0.76005619484931230545	1	1	1116.6704350034706295	0	32	252	1	1	0	1	2	0
4	1	8	53	69685	2262	0.76010250207036733627	0	1	2574.8303260188549757	0	NaN	NaN	0	1	1	0	1	0
4	1	8	54	38855	4784	0.76014878798741847277	1	1	1102.4081709911115468	0	95	NaN	1	1	0	1	2	0
4	1	8	55	40801	5714	0.76024138100910931826	1	1	1557.7549080189783126	0	198	NaN	1	1	0	1	2	0
4	1	8	56	31497	1108	0.76028767437674105167	1	1	1117.3841150011867285	0	279	389	1	1	0	1	2	0
4	1	8	57	57366	1224	0.76033387298230081797	0	1	2103.0327650078106672	0	NaN	NaN	0	1	1	0	1	0
4	1	8	58	33847	9934	0.76038016623351722956	0	0	2702.201103005791083	0	NaN	NaN	0	0	0	1	2	0
4	1	8	59	52195	1317	0.76042646530549973249	0	1	1801.8977710162289441	0	NaN	NaN	0	1	1	0	1	0
4	1	8	60	58145	805	0.76047275587916374207	0	1	1619.1186149953864515	0	NaN	NaN	0	1	1	0	1	0
4	1	8	61	53246	5274	0.76051904703490436077	0	1	1790.2853210107423365	0	NaN	NaN	0	1	1	0	1	0
4	1	8	62	44057	5350	0.76056534249801188707	0	1	1317.2301230079028755	0	NaN	NaN	0	1	1	0	1	0
4	1	9	1	69685	2262	0.76315486081875860691	1	1	1420.4485829977784306	0	9	NaN	1	1	0	1	2	0
4	1	9	2	55092	6246	0.76320115942507982254	1	1	1287.5442049989942461	0	149	NaN	1	1	0	1	2	0
4	1	9	3	64470	9272	0.76324745372403413057	1	1	902.52734598470851779	0	92	203	1	1	0	1	2	0
4	1	9	4	8871	4741	0.76329374988563358784	1	1	948.9657319791149348	0	242	NaN	1	1	0	1	2	0
4	1	9	5	11943	145	0.76334003917872905731	0	1	2457.1777620003558695	1	NaN	NaN	0	1	1	1	1	0
4	1	9	6	14622	6367	0.76338633522391319275	0	1	2386.5807800029870123	0	NaN	NaN	0	1	1	0	1	0
4	1	9	7	51168	3548	0.76343262498266994953	1	1	1001.8273229943588376	0	194	298	1	1	0	1	2	0
4	1	9	8	55830	2752	0.76347892393823713064	0	1	1902.6118679903447628	0	NaN	NaN	0	1	1	0	1	0
4	1	9	9	19182	230	0.7635252135805785656	1	1	1146.8048829992767423	0	74	NaN	1	1	0	1	2	0
4	1	9	10	35651	9922	0.76357150485273450613	0	1	2283.3949509949889034	0	NaN	NaN	0	1	1	0	1	0
4	1	9	11	23476	5889	0.76361779763828963041	0	1	1619.9705699982587248	0	NaN	NaN	0	1	1	0	1	0
4	1	9	12	9198	2377	0.76366410043556243181	0	0	2780.3381279809400439	0	NaN	NaN	0	0	0	1	2	0
4	1	9	13	59468	1492	0.76371039520017802715	1	1	1719.1774290113244206	0	209	NaN	1	1	0	1	2	0
4	1	9	14	17978	3194	0.76380298077128827572	1	1	963.25077299843542278	0	160	319	1	1	0	1	2	0
4	1	9	15	29915	1899	0.76384927809704095125	0	1	2522.5678739952854812	0	NaN	NaN	0	1	1	0	1	0
4	1	9	16	12227	9049	0.76389556331560015678	0	1	2906.6991200088523328	0	NaN	NaN	0	1	1	0	1	0
4	1	9	17	31405	5081	0.7639418687904253602	1	1	1052.2593320056330413	0	256	NaN	1	1	0	1	2	0
4	1	9	18	63795	8174	0.76398815924767404795	1	1	1135.7070190133526921	0	141	180	1	1	0	1	2	0
4	1	9	19	12404	1624	0.76403445389587432146	0	1	1466.9016019906848669	0	NaN	NaN	0	1	1	0	1	0
4	1	9	20	38818	511	0.76408074831124395132	0	0	2693.3747609728015959	0	NaN	NaN	0	0	0	1	2	0
4	1	9	21	15918	4420	0.76412694435566663742	0	1	3712.9889120114967227	1	NaN	NaN	0	1	1	1	1	0
4	1	9	22	69214	5745	0.76417323981877416372	0	1	2670.225431997096166	0	NaN	NaN	0	1	1	0	1	0
4	1	9	23	35517	3492	0.76421953190583735704	0	1	1585.8460509916767478	0	NaN	NaN	0	1	1	0	1	0
4	1	9	24	66490	919	0.76426582387648522854	0	1	1227.6715399930253625	0	NaN	NaN	0	1	1	0	1	0
4	1	9	25	54694	5733	0.76435841538477689028	0	1	1636.225830006878823	0	NaN	NaN	0	1	1	0	1	0
4	1	9	26	1009	8542	0.76440470537636429071	0	1	1703.1385920126922429	0	NaN	NaN	0	1	1	0	1	0
4	1	9	27	6186	2220	0.76445100398268550634	0	1	2172.7571030205581337	0	NaN	NaN	0	1	1	0	1	0
4	1	9	28	71233	984	0.76449729932937771082	0	1	1739.6239489899016917	0	NaN	NaN	0	1	1	0	1	0
4	1	9	29	69738	7057	0.76454359316267073154	0	1	1542.4124980054330081	0	NaN	NaN	0	1	1	0	1	0
4	1	9	30	2617	5896	0.76458988536614924669	0	1	1402.3746629827655852	0	NaN	NaN	0	1	1	0	1	0
4	1	9	31	71537	7390	0.76463617850095033646	0	1	1351.5309499925933778	0	NaN	NaN	0	1	1	0	1	0
4	1	9	32	30126	5139	0.76468247536104172468	0	1	1252.9363609792198986	0	NaN	NaN	0	1	1	0	1	0
4	1	9	33	43088	2320	0.76472877012565732002	0	1	1557.8884290007408708	0	NaN	NaN	0	1	1	0	1	0
4	1	9	34	9877	6169	0.76477505499497056007	0	1	1772.6713549927808344	0	NaN	NaN	0	1	1	0	1	0
4	1	9	35	41499	4523	0.76482135255355387926	1	1	1441.2850660155527294	0	522	NaN	1	1	0	1	2	0
4	1	9	36	16271	7240	0.7649139397544786334	0	1	2760.4747010045684874	0	NaN	NaN	0	1	1	0	1	0
4	1	9	37	23274	6069	0.76496023149229586124	0	1	1714.976955991005525	0	NaN	NaN	0	1	1	0	1	0
4	1	9	38	49820	6817	0.76500652497634291649	0	1	1665.5559320061001927	0	NaN	NaN	0	1	1	0	1	0
4	1	9	39	43088	2320	0.76505282579455524683	1	1	1036.3107010198291391	0	5	NaN	1	1	0	1	2	0
4	1	9	40	29305	3951	0.76509912149049341679	1	1	1256.152954010758549	0	291	NaN	1	1	0	1	2	0
4	1	9	41	27565	7568	0.76514541858341544867	0	1	1581.0091960011050105	0	NaN	NaN	0	1	2	0	1	0
4	1	9	42	45303	7447	0.76519171020481735468	0	1	1120.582667994312942	0	NaN	NaN	0	1	1	0	1	0
4	1	9	43	43949	6540	0.76523800508584827185	0	1	2051.5718999959062785	0	NaN	NaN	0	1	1	0	1	0
4	1	9	44	16740	2255	0.76528430054895579815	0	1	2564.1842820041347295	0	NaN	NaN	0	1	1	0	1	0
4	1	9	45	28921	9088	0.76537688204552978277	0	1	1994.0712589886970818	0	NaN	NaN	0	1	1	0	1	0
4	1	9	46	60045	9124	0.76542308006901293993	0	0	3187.0721879822667688	0	NaN	NaN	0	0	0	1	2	0
4	1	9	47	49201	3293	0.76546937401872128248	1	1	1250.2713550056796521	0	158	187	1	1	0	1	2	0
4	1	9	48	18904	2821	0.76551567332353442907	0	1	2278.296270000282675	0	NaN	NaN	0	1	1	0	1	0
4	1	9	49	45544	4095	0.76556196238379925489	0	1	2417.7158599777612835	0	NaN	NaN	0	1	1	0	1	0
4	1	9	50	38418	4751	0.76560825633350759745	1	1	1402.6471899996977299	0	328	NaN	1	1	0	1	2	0
4	1	9	51	17342	2755	0.76565455447416752577	1	1	1115.1803639950230718	0	67	NaN	1	1	0	1	2	0
4	1	9	52	35421	7655	0.76570084830746054649	0	1	1804.0153990150429308	0	NaN	NaN	0	1	1	0	1	0
4	1	9	53	35488	3807	0.76574713492300361395	0	1	1789.6379840094596148	0	NaN	NaN	0	1	1	0	1	0
4	1	9	54	45444	3457	0.76579343283083289862	1	1	1118.0637579818721861	0	267	353	1	1	0	1	2	0
4	1	9	55	27913	8109	0.76588601840194314718	1	1	1404.051724006421864	0	115	NaN	1	1	0	1	2	0
4	1	9	56	65348	6054	0.76593231922015547752	0	1	1959.9324380105827004	0	NaN	NaN	0	1	1	0	1	0
4	1	9	57	49566	9508	0.76597861002665013075	0	1	1602.896967000560835	0	NaN	NaN	0	1	1	0	1	0
4	1	9	58	32360	3768	0.76602490409277379513	0	1	1046.4922709797974676	0	NaN	NaN	0	1	1	0	1	0
4	1	9	59	60428	6410	0.76607120281551033258	0	1	1554.6104390232358128	0	NaN	NaN	0	1	1	0	1	0
4	1	9	60	72620	2328	0.76611749571748077869	0	1	1942.7130580006632954	0	NaN	NaN	0	1	1	0	1	0
4	1	9	61	35488	3807	0.76616378594189882278	1	1	856.93972400622442365	0	7	NaN	1	1	0	1	2	0
4	1	9	62	41869	7697	0.76621008524671196938	0	1	1591.1915460019372404	0	NaN	NaN	0	1	1	0	1	0
4	1	9	63	11210	8816	0.76625637884717434645	0	1	1614.1374400176573545	0	NaN	NaN	0	1	1	0	1	0
4	1	10	1	25554	3444	0.76775436254683881998	1	1	1256.2169400043785572	0	314	482	1	1	0	1	2	0
4	1	10	2	17369	7744	0.76780067419167608023	0	1	1920.2484849956817925	0	NaN	NaN	0	1	1	0	1	0
4	1	10	3	34249	6106	0.76784695836249738932	1	1	983.7812810146715492	0	107	295	1	1	0	1	2	0
4	1	10	4	18387	1126	0.76789326278958469629	0	1	1587.063093000324443	0	NaN	NaN	0	1	1	0	1	0
4	1	10	5	32514	7339	0.76793954684399068356	0	1	2288.2132219965569675	0	NaN	NaN	0	1	1	0	1	0
4	1	10	6	69504	2913	0.76798584626521915197	0	1	1604.510399978607893	0	NaN	NaN	0	1	1	0	1	0
4	1	10	7	7047	7572	0.76803213043604046106	0	1	1651.8390210112556815	0	NaN	NaN	0	1	1	0	1	0
4	1	10	8	68220	8516	0.76807844126597046852	1	1	1024.0684070158749819	0	202	NaN	1	1	0	1	2	0
4	1	10	9	49742	6139	0.7681247189175337553	0	1	2201.897583989193663	0	NaN	NaN	0	1	1	0	1	0
4	1	10	10	55178	9261	0.7682173080975189805	0	1	2368.4495989873539656	0	NaN	NaN	0	1	1	0	1	0
4	1	10	11	34071	8315	0.76826361124403774738	1	1	888.2057259907014668	0	167	175	1	1	0	1	2	0
4	1	10	12	3627	14	0.76830990356393158436	0	1	1618.3434269914869219	0	NaN	NaN	0	1	1	0	1	0
4	1	10	13	19607	5660	0.76835620577912777662	1	1	1569.5796349900774658	0	178	NaN	1	1	0	1	2	0
4	1	10	14	65576	6692	0.76840249134693294764	1	1	930.17843700363300741	0	143	398	1	1	0	1	2	0
4	1	10	15	40540	4211	0.76844879495911300182	0	1	1020.1213289983570576	0	NaN	NaN	0	1	1	0	1	0
4	1	10	16	19170	9571	0.76849507703445851803	0	1	1146.2972500012256205	0	NaN	NaN	0	1	1	0	1	0
4	1	10	17	47614	9570	0.76854138018097728491	0	1	2091.8791989970486611	0	NaN	NaN	0	1	1	0	1	0
4	1	10	18	51949	4400	0.76858766586519777775	0	1	2022.4609379947651178	0	NaN	NaN	0	1	1	0	1	0
4	1	10	19	67936	8200	0.76863395026884973049	0	1	2085.5426920170430094	0	NaN	NaN	0	1	1	0	1	0
4	1	10	20	6037	5345	0.7686802474781870842	0	1	2567.9737899918109179	0	NaN	NaN	0	1	1	0	1	0
4	1	10	21	27501	4585	0.76877283456269651651	0	1	2971.2594079901464283	0	NaN	NaN	0	1	1	0	1	0
4	1	10	22	31405	5081	0.76881912758108228445	1	1	673.00761799560859799	0	67	324	1	1	0	1	2	0
4	1	10	23	70922	7247	0.76886542979627847672	0	1	2373.278391984058544	0	NaN	NaN	0	1	1	0	1	0
4	1	10	24	41608	5960	0.76891172095201909542	0	1	3025.1842600118834525	0	NaN	NaN	0	1	1	0	1	0
4	1	10	25	17888	6843	0.76895801641512662172	1	1	933.24833799852058291	0	244	485	1	1	0	1	2	0
4	1	10	26	56535	2726	0.76900430663954466581	0	1	1629.9871630035340786	0	NaN	NaN	0	1	1	0	1	0
4	1	10	27	36073	4285	0.76905059802811592817	1	1	770.7824209937825799	0	141	403	1	1	0	1	2	0
4	1	10	28	51503	7449	0.76909689221065491438	0	1	1985.1815380097832531	0	NaN	NaN	0	1	1	0	1	0
4	1	10	29	69372	3909	0.76914309791754931211	0	1	1910.7021589879877865	0	NaN	NaN	0	1	1	0	1	0
4	1	10	30	35083	6194	0.76923567987978458405	0	1	3363.9214490249287337	0	NaN	NaN	0	1	1	0	1	0
4	1	10	31	19747	3376	0.76928197999950498343	1	1	977.01263701310381293	0	484	NaN	1	1	0	1	2	0
4	1	10	32	35403	3500	0.7693282723193988204	0	1	2317.4903640174306929	0	NaN	NaN	0	1	1	0	1	0
4	1	10	33	13773	6752	0.76937456801533699036	0	1	1723.6995839921291918	0	NaN	NaN	0	1	1	0	1	0
4	1	10	34	17196	4739	0.76942085986956954002	0	1	1537.231039023026824	0	NaN	NaN	0	1	1	0	1	0
4	1	10	35	69023	3456	0.76946715544909238815	0	1	1545.7735040108673275	0	NaN	NaN	0	1	1	0	1	0
4	1	10	36	19182	230	0.76951345137786120176	1	1	884.13156499154865742	0	89	164	1	1	0	1	2	0
4	1	10	37	45596	616	0.7695597426500171423	1	1	1217.7764649968594313	0	253	NaN	1	1	0	1	2	0
4	1	10	38	14529	173	0.76960603939369320869	0	1	1247.0568759890738875	0	NaN	NaN	0	1	1	0	1	0
4	1	10	39	45193	2163	0.76965233311057090759	0	1	1687.8185259993188083	0	NaN	NaN	0	1	1	0	1	0
4	1	10	40	7601	9008	0.76974492112640291452	0	1	1920.6815490033477545	0	NaN	NaN	0	1	1	0	1	0
4	1	10	41	19095	4465	0.76979121600743383169	0	1	2312.1546369802672416	0	NaN	NaN	0	1	1	0	1	0
4	1	10	42	36476	7198	0.7698375101899728179	0	1	1469.4648869917728007	0	NaN	NaN	0	1	1	0	1	0
4	1	10	43	12136	5817	0.76988380227703601122	0	1	1401.9153490080498159	0	NaN	NaN	0	1	1	0	1	0
4	1	10	44	29509	6148	0.76993009855505079031	0	1	2001.5171509876381606	0	NaN	NaN	0	1	1	0	1	0
4	1	10	45	30242	4356	0.7699763844721019268	0	1	1456.7589339858386666	0	NaN	NaN	0	1	1	0	1	0
4	1	10	46	5030	4186	0.77002268657088279724	1	1	1064.4126039987895638	0	494	NaN	1	1	0	1	2	0
4	1	10	47	45206	1703	0.7700689719058573246	1	0	2460.5523970094509423	0	570	NaN	1	0	1	0	1	0
4	1	10	48	36823	9294	0.77011527528520673513	0	1	2317.4174510058946908	0	NaN	NaN	0	1	1	0	1	0
4	1	10	49	30766	6311	0.77016157074831426144	1	1	2451.8730489944573492	0	133	256	1	1	0	1	2	0
4	1	10	50	46183	9492	0.77020786306820809841	0	1	3085.894528980134055	0	NaN	NaN	0	1	1	0	1	0
4	1	10	51	66743	8688	0.77025415666867047548	0	1	1602.825603011297062	0	NaN	NaN	0	1	1	0	1	0
4	1	10	52	18475	3319	0.77034674398601055145	0	1	2136.2717090232763439	0	NaN	NaN	0	1	1	0	1	0
4	1	10	53	39625	1769	0.7703929428244009614	0	1	1688.394377997610718	0	NaN	NaN	0	1	1	0	1	0
4	1	10	54	4348	8140	0.77043923374731093645	0	1	1845.6853179959580302	0	NaN	NaN	0	1	1	0	1	0
4	1	10	55	51589	7561	0.77048552362248301506	0	1	2165.5587549903430045	0	NaN	NaN	0	1	1	0	1	0
4	1	10	56	10355	2304	0.77053182595409452915	0	1	1381.6217129933647811	0	NaN	NaN	0	1	1	0	1	0
4	1	10	57	49704	2481	0.77057811222039163113	0	1	1302.2716060222592205	0	NaN	NaN	0	1	1	0	1	0
4	1	10	58	49856	2880	0.77062440558802336454	1	1	1385.1594819861929864	0	402	NaN	1	1	0	1	2	0
4	1	10	59	49312	2186	0.77067070896737277508	1	1	1612.486339989118278	0	162	NaN	1	1	0	1	2	0
4	1	10	60	38333	2935	0.77071700163651257753	0	1	2235.6461570016108453	0	NaN	NaN	0	1	1	0	1	0
4	1	10	61	42728	5193	0.77076328708790242672	0	1	2434.612970013404265	0	NaN	NaN	0	1	1	0	1	0
4	1	10	62	9918	116	0.77080959000159054995	1	1	1203.2273020013235509	0	267	NaN	1	1	0	1	2	0
4	1	11	1	27880	9647	0.77238916640635579824	0	1	2939.0211289864964783	0	NaN	NaN	0	1	1	0	1	0
4	1	11	2	43749	1791	0.77243546245153993368	0	1	2002.6933049957733601	0	NaN	NaN	0	1	1	0	1	0
4	1	11	3	57127	1407	0.77248176641296595335	0	1	1691.6653630032669753	0	NaN	NaN	0	1	1	0	1	0
4	1	11	4	56043	770	0.77252805628813803196	0	1	1805.8465649955905974	0	NaN	NaN	0	1	1	0	1	0
4	1	11	5	2842	2830	0.77257435268256813288	0	0	2234.4494879944249988	0	NaN	NaN	0	0	0	1	2	0
4	1	11	6	38329	2129	0.77262065466493368149	0	1	1025.2328070055227727	0	NaN	NaN	0	1	1	0	1	0
4	1	11	7	5758	2579	0.7726669402327388525	0	1	1764.3911170016508549	0	NaN	NaN	0	1	1	0	1	0
4	1	11	8	60287	3014	0.77271324594039469957	1	1	1188.0692710110452026	0	444	540	1	1	0	1	2	0
4	1	11	9	34239	459	0.77275953022763133049	0	0	1443.0691649904474616	0	NaN	NaN	0	0	0	1	2	0
4	1	11	10	68991	2642	0.77280583372339606285	0	1	1811.8500350101385266	0	NaN	NaN	0	1	1	0	1	0
4	1	11	11	38147	8996	0.7728521185927093029	0	1	2430.5829560034908354	0	NaN	NaN	0	1	1	0	1	0
4	1	11	12	69214	5745	0.77289842243772000074	1	1	1101.7797359963878989	0	114	NaN	1	1	0	1	2	0
4	1	11	13	37908	3410	0.77299100917298346758	0	1	1902.5542020099237561	0	NaN	NaN	0	1	1	0	1	0
4	1	11	14	17529	8116	0.77303729567211121321	0	1	1267.9819559853058308	0	NaN	NaN	0	1	1	0	1	0
4	1	11	15	54694	5733	0.77308359532617032528	1	1	926.71593200066126883	0	114	NaN	1	1	0	1	2	0
4	1	11	16	29305	3951	0.77312988450285047293	1	1	915.01641299691982567	0	100	392	1	1	0	1	2	0
4	1	11	17	6691	1482	0.77317617903463542461	0	1	1701.9833159865811467	0	NaN	NaN	0	1	1	0	1	0
4	1	11	18	2388	4599	0.77322247147094458342	0	1	1903.5041409952100366	0	NaN	NaN	0	1	1	0	1	0
4	1	11	19	22567	4040	0.77326877415180206299	0	1	1728.0549990246072412	0	NaN	NaN	0	1	1	0	1	0
4	1	11	20	69631	4982	0.77331506111659109592	0	1	2870.9370330034289509	0	NaN	NaN	0	1	1	0	1	0
4	1	11	21	6842	8474	0.77336135879158973694	0	1	1730.6202159961685538	0	NaN	NaN	0	1	1	0	1	0
4	1	11	22	17205	9657	0.77340764144901186228	1	1	1038.3990090049337596	0	321	NaN	1	1	0	1	2	0
4	1	11	23	34003	6168	0.77350023365579545498	0	1	1976.8836330040358007	0	NaN	NaN	0	1	1	0	1	0
4	1	11	24	32182	6537	0.77354653994552791119	0	1	1471.6722079901956022	0	NaN	NaN	0	1	1	0	1	0
4	1	11	25	67175	4759	0.77359281841199845076	0	1	1560.2642180165275931	0	NaN	NaN	0	1	1	0	1	0
4	1	11	26	36560	5514	0.77363912924192845821	1	1	1081.7808720166794956	0	171	NaN	1	1	0	1	2	0
4	1	11	27	33653	4620	0.77368540840689092875	0	1	1721.6046210087370127	0	NaN	NaN	0	1	1	0	1	0
4	1	11	28	11527	7333	0.77373171423096209764	0	1	1301.4736410113982856	0	NaN	NaN	0	1	1	0	1	0
4	1	11	29	44045	1069	0.77377800107933580875	0	1	1415.693613002076745	0	NaN	NaN	0	1	1	0	1	0
4	1	11	30	6349	1218	0.77382428653072565794	0	1	1438.7224240053910762	0	NaN	NaN	0	1	1	0	1	0
4	1	11	31	52665	1512	0.77387058944441378117	0	1	1707.4457479757256806	0	NaN	NaN	0	1	1	0	1	0
4	1	11	32	2388	4599	0.77391688176430761814	1	1	869.82579401228576899	0	13	NaN	1	1	0	1	2	0
4	1	11	33	13257	1040	0.77396317268721759319	0	1	1758.5206879884935915	0	NaN	NaN	0	1	1	0	1	0
4	1	11	34	12404	1624	0.77400946395937353373	1	1	1415.1592379785142839	0	139	NaN	1	1	0	1	2	0
4	1	11	35	32186	1808	0.77410196280106902122	1	1	1035.8710300060920417	0	333	NaN	1	1	0	1	2	0
4	1	11	36	24806	4690	0.77414824825245887041	0	1	2026.6253529989626259	0	NaN	NaN	0	1	1	0	1	0
4	1	11	37	47842	5019	0.77419454394839704037	0	1	3279.129776987247169	1	NaN	NaN	0	1	1	1	1	0
4	1	11	38	48601	5219	0.77424084476660937071	0	1	1530.5883900146000087	0	NaN	NaN	0	1	1	0	1	0
4	1	11	39	37745	9102	0.77428713359404355288	0	1	1519.6489650115836412	0	NaN	NaN	0	1	1	0	1	0
4	1	11	40	28249	9621	0.77433342428412288427	1	1	2740.0156700168736279	1	547	NaN	1	1	1	1	2	0
4	1	11	41	35588	5874	0.77437973069027066231	0	1	2440.8395770005881786	0	NaN	NaN	0	1	1	0	1	0
4	1	11	42	14122	169	0.77442601951770484447	0	1	1902.7748219959903508	0	NaN	NaN	0	1	1	0	1	0
4	1	11	43	28921	9088	0.77447230950929224491	1	1	1350.5142339854501188	0	122	NaN	1	1	0	1	2	0
4	1	11	44	18159	4637	0.77456490218173712492	0	1	1502.3273919941857457	0	NaN	NaN	0	1	1	0	1	0
4	1	11	45	5385	4522	0.77461119310464709997	0	1	1823.0935600004158914	0	NaN	NaN	0	1	1	0	1	0
4	1	11	46	42627	7224	0.77465748973190784454	0	1	1344.2171810020226985	0	NaN	NaN	0	1	1	0	1	0
4	1	11	47	48480	3822	0.77470378251746296883	0	1	1062.8592729917727411	0	NaN	NaN	0	1	1	0	1	0
4	1	11	48	41494	6407	0.77475008030887693167	0	1	1368.350907985586673	0	NaN	NaN	0	1	1	0	1	0
4	1	11	49	55180	8393	0.77479637542273849249	0	0	1114.0716969966888428	0	NaN	NaN	0	0	0	1	2	0
4	1	11	50	17529	8116	0.77484266145620495081	1	1	969.90521499537862837	0	35	NaN	1	1	0	1	2	0
4	1	11	51	40816	2044	0.77488896390423178673	0	1	2016.9388150097802281	0	NaN	NaN	0	1	1	0	1	0
4	1	11	52	28968	3862	0.77493525354657322168	1	1	1306.1669130111113191	0	247	NaN	1	1	0	1	2	0
4	1	11	53	53546	8019	0.77498155005741864443	0	1	1630.4817330092191696	0	NaN	NaN	0	1	1	0	1	0
4	1	11	54	57127	1407	0.77507413376588374376	1	1	2018.0743329983670264	1	50	NaN	1	1	1	1	2	0
4	1	11	55	60743	7367	0.77512043225578963757	1	1	902.97728800214827061	0	589	NaN	1	1	0	1	2	0
4	1	11	56	28529	8706	0.77516672678757458925	0	1	2285.103416012134403	0	NaN	NaN	0	1	2	0	1	0
4	1	11	57	18960	2753	0.77521301980596035719	0	0	2906.7783589998725802	0	NaN	NaN	0	0	0	1	2	0
4	1	11	58	72211	3802	0.77525930944830179214	0	1	2227.4015060102101415	0	NaN	NaN	0	1	1	0	1	0
4	1	11	59	17205	9657	0.77530560980085283518	1	1	880.02916300320066512	0	36	358	1	1	0	1	2	0
4	1	11	60	40801	5714	0.77535190468188375235	1	1	1282.1342609822750092	0	191	390	1	1	0	1	2	0
4	1	11	61	26352	347	0.77539809374138712883	0	1	1819.2923309979960322	0	NaN	NaN	0	1	1	0	1	0
4	1	11	62	5385	4522	0.77544439956545829773	1	1	902.93378301430493593	0	16	NaN	1	1	0	1	2	0
4	1	11	63	6717	5102	0.77549069118686020374	0	1	1932.609775016317144	0	NaN	NaN	0	1	1	0	1	0
4	1	12	1	56892	1122	0.77696178015321493149	0	1	2781.191562011372298	1	NaN	NaN	0	1	1	1	1	0
4	1	12	2	4787	36	0.77700806967914104462	1	1	1218.6962619889527559	0	286	NaN	1	1	0	1	2	0
4	1	12	3	55390	5273	0.77705436211545020342	0	1	1703.2471770071424544	0	NaN	NaN	0	1	1	0	1	0
4	1	12	4	26525	9335	0.7771006622351706028	1	1	1902.3695570067502558	0	269	NaN	1	1	0	1	2	0
4	1	12	5	37908	3410	0.77714694826863706112	1	1	1210.738789988681674	0	54	NaN	1	1	0	1	2	0
4	1	12	6	8942	5670	0.77719325467478483915	0	1	1602.9850839986465871	0	NaN	NaN	0	1	1	0	1	0
4	1	12	7	30123	5449	0.7772395408246666193	0	1	2202.5902470049913973	0	NaN	NaN	0	1	1	0	1	0
4	1	12	8	49735	4580	0.77728584338910877705	0	1	1433.3029880071990192	0	NaN	NaN	0	1	1	0	1	0
4	1	12	9	948	1994	0.77733212872408330441	0	1	1589.8826699994970113	0	NaN	NaN	0	1	1	0	1	0
4	1	12	10	50933	1386	0.77737842535134404898	0	1	1968.8061019987799227	0	NaN	NaN	0	1	1	0	1	0
4	1	12	11	641	9828	0.7774247161578387022	0	1	2015.7277209800668061	0	NaN	NaN	0	1	1	0	1	0
4	1	12	12	41719	9484	0.77747102221474051476	1	1	1769.0208690182771534	0	371	NaN	1	1	0	1	2	0
4	1	12	13	20842	1490	0.77751729683950543404	0	1	1361.4989690249785781	0	NaN	NaN	0	1	1	0	1	0
4	1	12	14	11160	131	0.77760989242233335972	0	1	2371.4386139763519168	0	NaN	NaN	0	1	1	0	1	0
4	1	12	15	46163	5518	0.77765619184356182814	0	1	1575.1354869862552732	0	NaN	NaN	0	1	1	0	1	0
4	1	12	16	63939	1103	0.77770247904118150473	0	1	1551.7995600239373744	0	NaN	NaN	0	1	1	0	1	0
4	1	12	17	26557	5354	0.7777487864950671792	0	1	1438.1628750124946237	0	NaN	NaN	0	1	1	0	1	0
4	1	12	18	23049	8405	0.77779506973456591368	0	1	1688.9880620001349598	0	NaN	NaN	0	1	1	0	1	0
4	1	12	19	10700	4272	0.77784137486014515162	0	1	1514.5368920057080686	0	NaN	NaN	0	1	1	0	1	0
4	1	12	20	31870	9513	0.77788765705190598965	0	1	2075.0706269755028188	0	NaN	NaN	0	1	1	0	1	0
4	1	12	21	14999	7408	0.77793385239783674479	0	1	1192.3121110012289137	0	NaN	NaN	0	1	1	0	1	0
4	1	12	22	69504	2913	0.77798014192376285791	1	1	963.82047299994155765	0	140	NaN	1	1	0	1	2	0
4	1	12	23	42637	1834	0.77802644541952759027	0	1	2102.9243670054711401	0	NaN	NaN	0	1	1	0	1	0
4	1	12	24	53498	7141	0.77811903425026684999	0	1	2108.0928659939672798	0	NaN	NaN	0	1	1	0	1	0
4	1	12	25	68839	1784	0.77816531818825751543	0	1	1519.8648560035508126	0	NaN	NaN	0	1	1	0	1	0
4	1	12	26	10646	3880	0.7782116160960868001	0	1	2106.9020559953060001	0	NaN	NaN	0	1	1	0	1	0
4	1	12	27	57127	1407	0.77825791505165398121	1	1	1132.1204039850272238	0	35	86	1	1	0	1	2	0
4	1	12	28	22842	5778	0.77830420341342687607	0	1	1844.7818910062778741	0	NaN	NaN	0	1	1	0	1	0
4	1	12	29	37118	5306	0.77835049969144165516	0	0	1940.5851699993945658	0	NaN	NaN	0	0	0	1	2	0
4	1	12	30	5596	6677	0.77839679643511772156	0	1	1359.626425983151421	0	NaN	NaN	0	1	1	0	1	0
4	1	12	31	7524	6378	0.77844309061765670776	0	1	1620.8541230007540435	0	NaN	NaN	0	1	1	0	1	0
4	1	12	32	71366	2451	0.7784893836360424757	1	1	1039.7034019988495857	0	305	NaN	1	1	0	1	2	0
4	1	12	33	48480	3822	0.77853568049613386393	1	1	1269.4163539854343981	0	48	NaN	1	1	0	1	2	0
4	1	12	34	26362	5870	0.77862826536875218153	0	1	2178.4396709990687668	0	NaN	NaN	0	1	1	0	1	0
4	1	12	35	10793	2567	0.77867455326486378908	0	0	2702.2494609991554171	0	NaN	NaN	0	0	0	1	2	0
4	1	12	36	43146	1446	0.77872085501439869404	0	1	2541.4082100032828748	0	NaN	NaN	0	1	1	0	1	0
4	1	12	37	14529	173	0.77876714721787720919	1	1	941.32783301756717265	0	123	NaN	1	1	0	1	2	0
4	1	12	38	17602	5360	0.77881343697663396597	0	1	1619.7303560038562864	0	NaN	NaN	0	1	1	0	1	0
4	1	12	39	34003	6168	0.77885972848162055016	1	1	891.39211297151632607	0	78	NaN	1	1	0	1	2	0
4	1	12	40	2388	4599	0.77890603640116751194	1	1	1002.1223750081844628	0	70	84	1	1	0	1	2	0
4	1	12	41	22033	4614	0.77895232243463397026	0	1	1192.2191609919536859	0	NaN	NaN	0	1	1	0	1	0
4	1	12	42	64824	8417	0.77899861452169716358	0	1	2618.1323369964957237	1	NaN	NaN	0	1	1	1	1	0
4	1	12	43	54323	2034	0.77909120812546461821	0	1	1114.1591240011621267	0	NaN	NaN	0	1	1	0	1	0
4	1	12	44	29838	398	0.77913750056177377701	0	1	1260.8771529921796173	0	NaN	NaN	0	1	1	0	1	0
4	1	12	45	253	8629	0.77918369718827307224	0	1	1014.4177489855792373	0	NaN	NaN	0	1	1	0	1	0
4	1	12	46	25974	1411	0.77922999556176364422	0	1	1122.2612830169964582	0	NaN	NaN	0	1	1	0	1	0
4	1	12	47	45122	2152	0.77927627903409302235	0	1	863.43885300448164344	0	NaN	NaN	0	1	1	0	1	0
4	1	12	48	69977	6858	0.77932257647626101971	0	1	958.8060610112734139	0	NaN	NaN	0	1	1	0	1	0
4	1	12	49	72298	9391	0.77936887904070317745	0	1	814.31754399091005325	0	NaN	NaN	0	1	1	0	1	0
4	1	12	50	26557	5354	0.77941517089493572712	1	1	1128.9647429948672652	0	32	NaN	1	1	0	1	2	0
4	1	12	51	58145	805	0.7794614692684262991	1	1	1212.4654599756468087	0	240	NaN	1	1	0	1	2	0
4	1	12	52	51262	4665	0.7795540528604760766	0	0	1888.0309759988449514	0	NaN	NaN	0	0	0	1	2	0
4	1	12	53	51589	7561	0.77960035041905939579	1	1	886.94554101675748825	0	122	NaN	1	1	0	1	2	0
4	1	12	54	12568	8160	0.77964663889724761248	0	1	2951.7150909814517945	1	NaN	NaN	0	1	1	1	1	0
4	1	12	55	42579	2161	0.77969293668866157532	0	0	2327.5757490191608667	1	NaN	NaN	0	0	1	1	2	0
4	1	12	56	50711	7903	0.77973922295495867729	0	1	2123.3080359816085547	0	NaN	NaN	0	1	1	0	1	0
4	1	12	57	38009	7560	0.77978552179411053658	0	1	1389.2070429865270853	0	NaN	NaN	0	1	1	0	1	0
4	1	12	58	6706	2370	0.77983181574381887913	0	1	843.91765500186011195	0	NaN	NaN	0	1	1	0	1	0
4	1	12	59	8041	2563	0.77987810655031353235	0	1	2427.6521120045799762	1	NaN	NaN	0	1	1	1	1	0
4	1	12	60	48682	670	0.77992439898662269115	0	1	1633.5833100019954145	0	NaN	NaN	0	1	1	0	1	0
4	1	12	61	9208	9409	0.77997070003766566515	0	1	1901.490214018849656	0	NaN	NaN	0	1	1	0	1	0
4	1	12	62	5567	9681	0.78001699107699096203	0	1	2451.1753300030250102	0	NaN	NaN	0	1	1	0	1	0
4	2	1	1	65780	8819	14.733092817012220621	0	1	2140.1831759721972048	0	NaN	NaN	0	1	1	0	1	0
4	2	1	2	57140	2972	14.733139143791049719	0	1	1667.1543379779905081	0	NaN	NaN	0	1	1	0	1	0
4	2	1	3	14595	175	14.733185415738262236	0	1	1454.5932720066048205	0	NaN	NaN	0	1	1	0	1	0
4	2	1	4	9877	6169	14.733231739839538932	1	1	2340.0917940307408571	0	219	NaN	0	0	0	1	2	0
4	2	1	5	67498	1591	14.733277997700497508	0	1	1612.7344329725019634	0	NaN	NaN	0	1	1	0	1	0
4	2	1	6	65486	4692	14.733324336353689432	0	1	2008.1781499902717769	0	NaN	NaN	0	1	1	0	1	0
4	2	1	7	47806	4152	14.733370588743127882	0	1	1972.0814629690721631	0	NaN	NaN	0	1	1	0	1	0
4	2	1	8	59886	7167	14.733416933799162507	0	1	2096.9227409805171192	0	NaN	NaN	0	1	1	0	1	0
4	2	1	9	19095	4465	14.733463175944052637	1	0	2187.6116559724323452	0	154	NaN	0	1	1	0	1	0
4	2	1	10	50763	5313	14.733509527635760605	0	1	1577.0274029928259552	0	NaN	NaN	0	1	1	0	1	0
4	2	1	11	24481	305	14.733555762912146747	0	1	1534.6802279818803072	0	NaN	NaN	0	1	1	0	1	0
4	2	1	12	19582	9575	14.733602126128971577	1	0	1361.9959569768980145	0	346	NaN	0	1	1	0	1	0
4	2	1	13	36975	487	14.733648349298164248	0	1	1402.7025129762478173	0	NaN	NaN	0	1	1	0	1	0
4	2	1	14	17823	3997	14.733694723341614008	0	1	1648.3966659870930016	0	NaN	NaN	0	1	1	0	1	0
4	2	1	15	71537	7390	14.733787317061796784	1	0	1995.0541830039583147	0	233	NaN	0	1	1	0	1	0
4	2	1	16	16349	1277	14.733833521022461355	0	1	1726.2249200139194727	0	NaN	NaN	0	1	1	0	1	0
4	2	1	17	9130	2195	14.733879902283661067	0	1	1432.6132870046421885	0	NaN	NaN	0	1	1	0	1	0
4	2	1	18	5942	5101	14.733926113462075591	0	1	1908.7333880015648901	0	NaN	NaN	0	1	1	0	1	0
4	2	1	19	10957	1826	14.733972498215734959	0	1	2660.942046029958874	0	NaN	NaN	0	1	1	0	1	0
4	2	1	20	67498	1591	14.734018702991306782	1	1	945.01298700924962759	0	14	NaN	1	1	0	1	2	0
4	2	1	21	41102	2080	14.734065095894038677	0	1	1335.9469459974206984	0	NaN	NaN	0	1	1	0	1	0
4	2	1	22	40970	3804	14.734111293917521834	0	1	1129.8274999717250466	0	NaN	NaN	0	1	1	0	1	0
4	2	1	23	24277	2773	14.734157492290250957	0	1	1434.3648719950579107	0	NaN	NaN	0	1	1	0	1	0
4	2	1	24	6037	5345	14.734250086941756308	1	0	2415.1434439700096846	0	190	NaN	0	1	1	0	1	0
4	2	1	25	66021	7130	14.734296363545581698	1	1	3056.2979510286822915	0	336	497	0	0	0	1	2	0
4	2	1	26	52543	3770	14.73434267018456012	1	0	1420.6360219977796078	0	646	NaN	0	1	1	0	1	0
4	2	1	27	50933	1386	14.734388954355381429	1	0	2352.0954140112735331	0	78	NaN	0	1	1	0	1	0
4	2	1	28	11291	9317	14.734435250284150243	0	1	2203.6864350084215403	0	NaN	NaN	0	1	1	0	1	0
4	2	1	29	41645	8105	14.734481541905552149	0	1	1181.7821889999322593	0	NaN	NaN	0	1	1	0	1	0
4	2	1	30	9907	8280	14.73452783515676856	1	0	2729.394307010807097	0	413	NaN	0	1	1	0	1	0
4	2	1	31	36911	485	14.734574139351025224	0	1	1480.9411229798570275	0	NaN	NaN	0	1	1	0	1	0
4	2	1	32	16703	200	14.734620430390350521	0	1	1924.1410489776171744	0	NaN	NaN	0	1	1	0	1	0
4	2	1	33	57829	9130	14.734666717937216163	0	1	1466.7680589482188225	0	NaN	NaN	0	1	1	0	1	0
4	2	1	34	24401	2587	14.734713014797307551	0	1	1561.669548973441124	0	NaN	NaN	0	1	1	0	1	0
4	2	1	35	37969	2904	14.734759311424568295	0	1	1039.434470993001014	0	NaN	NaN	0	1	1	0	1	0
4	2	1	36	11870	4239	14.734851893968880177	0	1	1778.9623819990083575	0	NaN	NaN	0	1	1	0	1	0
4	2	1	37	62111	8001	14.734898196533322334	0	1	1502.4843409773893654	0	NaN	NaN	0	1	1	0	1	0
4	2	1	38	32322	3312	14.734944490599445999	0	1	1631.4065580372698605	0	NaN	NaN	0	1	1	0	1	0
4	2	1	39	15322	6903	14.734990788507275283	0	1	1256.3710729591548443	0	NaN	NaN	0	1	1	0	1	0
4	2	1	40	50763	5313	14.735037078498862684	1	1	1192.2490080469287932	0	29	NaN	1	1	0	1	2	0
4	2	1	41	20145	5567	14.735083369771018624	0	1	1346.8748499872162938	0	NaN	NaN	0	1	1	0	1	0
4	2	1	42	16743	9012	14.735129666631110013	0	1	1366.7735999915748835	0	NaN	NaN	0	1	1	0	1	0
4	2	1	43	25189	5208	14.735175955458544195	0	1	2538.233890023548156	0	NaN	NaN	0	1	1	0	1	0
4	2	1	44	24923	3475	14.735222249291837215	0	1	1914.8905689944513142	0	NaN	NaN	0	1	1	0	1	0
4	2	1	45	10830	2336	14.735268548829481006	1	1	2311.7965359706431627	0	366	433	0	0	0	1	2	0
4	2	1	46	7601	9008	14.735361138009466231	1	1	2202.6430429541505873	0	192	NaN	0	0	0	1	2	0
4	2	1	47	25876	7974	14.735407429747283459	1	1	1614.5094259991310537	0	333	539	0	0	0	1	2	0
4	2	1	48	48734	8441	14.735453722067177296	1	0	2508.8174649863503873	0	582	NaN	0	1	1	0	1	0
4	2	1	49	5603	53	14.735500010312534869	1	1	2127.467155980411917	0	565	NaN	0	0	0	1	2	0
4	2	1	50	3627	14	14.73554631310980767	1	0	2081.7509840126149356	0	224	NaN	0	1	1	0	1	0
4	2	1	51	16740	2255	14.735592605429701507	1	1	2934.547759999986738	1	256	NaN	0	0	1	1	2	0
4	2	1	52	6369	4096	14.735638806479983032	0	1	2003.6586559726856649	0	NaN	NaN	0	1	1	0	1	0
4	2	1	53	61749	848	14.735685097984969616	0	1	1905.8897019713185728	0	NaN	NaN	0	1	1	0	1	0
4	2	1	54	25933	4139	14.735731388907879591	0	1	1586.6090049967169762	0	NaN	NaN	0	1	1	0	1	0
4	2	1	55	32831	9969	14.735823977622203529	0	1	1668.593576003331691	0	NaN	NaN	0	1	1	0	1	0
4	2	1	56	58146	5604	14.735870272619649768	0	1	2120.6016709911637008	0	NaN	NaN	0	1	1	0	1	0
4	2	1	57	8534	5629	14.735916568548418581	0	1	2081.7107150214724243	0	NaN	NaN	0	1	1	0	1	0
4	2	1	58	1433	5555	14.735962864593602717	0	1	2104.3201260035857558	0	NaN	NaN	0	1	1	0	1	0
4	2	1	59	8007	86	14.736009158776141703	0	1	2101.3739099726080894	0	NaN	NaN	0	1	1	0	1	0
4	2	1	60	17890	7292	14.736055452027358115	0	1	2403.0368439853191376	0	NaN	NaN	0	1	1	0	1	0
4	2	1	61	71130	2391	14.736101745977066457	0	1	2259.9648229661397636	0	NaN	NaN	0	1	1	0	1	0
4	2	1	62	44347	1282	14.736148032010532916	0	1	3103.4306030487641692	0	NaN	NaN	0	1	1	0	1	0
4	2	1	63	45122	2152	14.736194332130253315	1	0	2910.988343006465584	0	77	NaN	0	1	1	0	1	0
4	2	2	1	5915	7785	14.737573411432094872	0	1	1707.2852890123613179	0	NaN	NaN	0	1	1	0	1	0
4	2	2	2	26116	4946	14.73761972866486758	0	1	1950.3165310015901923	0	NaN	NaN	0	1	1	0	1	0
4	2	2	3	1001	6483	14.737666008761152625	0	1	1367.5421150401234627	0	NaN	NaN	0	1	1	0	1	0
4	2	2	4	52259	1436	14.73771231051068753	0	1	811.75991497002542019	0	NaN	NaN	0	1	1	0	1	0
4	2	2	5	64948	6808	14.737758594797924161	0	1	1411.8898840388283134	0	NaN	NaN	0	1	1	0	1	0
4	2	2	6	23318	6129	14.737804902601055801	0	1	1531.3163420069031417	0	NaN	NaN	0	1	1	0	1	0
4	2	2	7	9606	3625	14.737851183861494064	0	1	1190.7904449617490172	0	NaN	NaN	0	1	1	0	1	0
4	2	2	8	32033	4127	14.737897479790262878	0	0	2781.9665399729274213	0	NaN	NaN	0	0	0	1	2	0
4	2	2	9	4787	36	14.737943768268451095	1	NaN	NaN	NaN	131	418	0	NaN	0	0	NaN	0
4	2	2	10	9606	3625	14.737990073161199689	1	1	2545.9134370321407914	1	2	NaN	1	1	1	1	2	0
4	2	2	11	17920	8509	14.738082658033818007	0	1	2131.0063449782319367	0	NaN	NaN	0	1	1	0	1	0
4	2	2	12	9675	7629	14.738128846976906061	0	1	1986.2452420056797564	0	NaN	NaN	0	1	1	0	1	0
4	2	2	13	6349	1218	14.738175146630965173	1	1	1269.4110070005990565	0	170	NaN	0	0	0	1	2	0
4	2	2	14	60428	6410	14.738221440464258194	1	0	2445.9148219902999699	0	267	NaN	0	1	1	0	1	0
4	2	2	15	13139	159	14.738267726032063365	0	1	2129.8454829957336187	0	NaN	NaN	0	1	1	0	1	0
4	2	2	16	36911	485	14.738314028014428914	1	1	1402.0511989947408438	0	47	NaN	1	1	0	1	2	0
4	2	2	17	68028	3127	14.738360319403000176	0	1	1939.8918620427139103	0	NaN	NaN	0	1	1	0	1	0
4	2	2	18	24261	9744	14.738406610442325473	0	1	2019.3289919989183545	0	NaN	NaN	0	1	1	0	1	0
4	2	2	19	70625	3412	14.738452907302416861	0	1	2411.1637739697471261	0	NaN	NaN	0	1	1	0	1	0
4	2	2	20	69051	9461	14.73849920486100018	0	1	2439.3157170270569623	0	NaN	NaN	0	1	1	0	1	0
4	2	2	21	33653	4620	14.7385917924111709	1	0	1885.1078530424274504	0	181	NaN	0	1	1	0	1	0
4	2	2	22	52214	4250	14.738638086244463921	0	1	2061.0460829921066761	0	NaN	NaN	0	1	1	0	1	0
4	2	2	23	11210	8816	14.738684377400204539	1	0	2121.2904659914784133	0	272	NaN	0	1	1	0	1	0
4	2	2	24	24401	2587	14.738730675540864468	1	1	1275.4537330474704504	0	52	NaN	1	1	0	1	2	0
4	2	2	25	47866	7627	14.738776972284540534	0	1	2268.3494609664194286	0	NaN	NaN	0	1	1	0	1	0
4	2	2	26	25455	327	14.738823264022357762	0	1	3188.1459560245275497	0	NaN	NaN	0	1	1	0	1	0
4	2	2	27	17537	7054	14.738869554130360484	0	1	2072.3731420002877712	0	NaN	NaN	0	1	1	0	1	0
4	2	2	28	59385	6637	14.738915851572528481	0	1	2285.0253420183435082	0	NaN	NaN	0	1	1	0	1	0
4	2	2	29	53029	4945	14.738962145638652146	0	1	2388.8525029760785401	0	NaN	NaN	0	1	1	0	1	0
4	2	2	30	25958	3524	14.739008441800251603	0	0	2900.1751499599777162	0	NaN	NaN	0	0	0	1	2	0
4	2	2	31	713	8854	14.739054728881455958	0	1	1767.5831600208766758	0	NaN	NaN	0	1	1	0	1	0
4	2	2	32	48480	3822	14.739101027604192495	1	1	1505.6522719678469002	0	123	172	0	0	0	1	2	0
4	2	2	33	14529	173	14.739147323183715343	1	1	1256.2238919781520963	0	120	244	0	0	0	1	2	0
4	2	2	34	1376	3975	14.739239905495196581	0	1	2414.1688719973899424	0	NaN	NaN	0	1	1	0	1	0
4	2	2	35	67309	8077	14.739286205032840371	0	1	2240.4279600013978779	0	NaN	NaN	0	1	1	0	1	0
4	2	2	36	67443	3935	14.739332497585564852	0	1	1912.7031490206718445	0	NaN	NaN	0	1	1	0	1	0
4	2	2	37	25189	5208	14.739378787111490965	1	1	1093.9303010236471891	0	56	NaN	1	1	0	1	2	0
4	2	2	38	24045	3179	14.739424983621574938	0	1	2403.2568289549089968	0	NaN	NaN	0	1	1	0	1	0
4	2	2	39	40927	1189	14.739471286302432418	0	1	2349.5625419891439378	0	NaN	NaN	0	1	1	0	1	0
4	2	2	40	25979	8403	14.739517579437233508	0	1	2752.1358649828471243	0	NaN	NaN	0	1	1	0	1	0
4	2	2	41	43440	1776	14.739563873852603137	0	1	1846.8576819868758321	0	NaN	NaN	0	1	1	0	1	0
4	2	2	42	35782	4187	14.739610166638158262	0	1	2466.2062249844893813	0	NaN	NaN	0	1	1	0	1	0
4	2	2	43	40876	3769	14.739656461053527892	0	1	1834.8950750078074634	0	NaN	NaN	0	1	1	0	1	0
4	2	2	44	52225	4812	14.739749050000682473	0	1	1802.4573989678174257	0	NaN	NaN	0	1	1	0	1	0
4	2	2	45	38952	6635	14.739795341622084379	0	1	2235.7624690048396587	0	NaN	NaN	0	1	1	0	1	0
4	2	2	46	20842	1490	14.739841636503115296	1	1	2370.2647329773753881	0	157	NaN	0	0	0	1	2	0
4	2	2	47	19170	9571	14.739887931500561535	1	0	2001.4982589636929333	0	280	NaN	0	1	1	0	1	0
4	2	2	48	50933	1386	14.739934224402531981	1	1	1127.5480600306764245	0	83	162	1	1	0	1	2	0
4	2	2	49	2617	5896	14.739980514743365347	1	0	2520.8728779689408839	0	331	NaN	0	1	1	0	1	0
4	2	2	50	42778	3371	14.740026814048178494	0	1	2664.9747450137510896	0	NaN	NaN	0	1	1	0	1	0
4	2	2	51	61396	8303	14.740073108114302158	0	1	3188.4600699995644391	0	NaN	NaN	0	1	1	0	1	0
4	2	2	52	51685	8258	14.740119404508732259	0	1	1408.8748960057273507	0	NaN	NaN	0	1	1	0	1	0
4	2	2	53	71931	2854	14.740165696712210774	0	1	1607.2384839644655585	0	NaN	NaN	0	1	1	0	1	0
4	2	2	54	69214	5745	14.740258282399736345	1	1	1640.7920889905653894	0	229	344	0	0	0	1	2	0
4	2	2	55	42658	8175	14.740304572624154389	1	0	2019.6770749753341079	0	449	NaN	0	1	1	0	1	0
4	2	2	56	62861	6851	14.740350868203677237	0	1	1982.7404630486853421	0	NaN	NaN	0	1	1	0	1	0
4	2	2	57	9231	108	14.740397167857736349	0	1	1251.5737080248072743	0	NaN	NaN	0	1	1	0	1	0
4	2	2	58	14595	175	14.740443460061214864	1	1	903.59503403306007385	0	117	NaN	1	1	0	1	2	0
4	2	2	59	62861	6851	14.740489746327511966	1	1	1003.1580590293742716	0	2	NaN	1	1	0	1	2	0
4	2	2	60	61396	8303	14.740536049590446055	1	1	866.69316096231341362	0	8	NaN	1	1	0	1	2	0
4	2	2	61	9492	3663	14.740582338650710881	0	1	1632.7854429837316275	0	NaN	NaN	0	1	1	0	1	0
4	2	2	62	10957	1826	14.740628533530980349	1	1	1138.7384400004521012	0	105	NaN	1	1	0	1	2	0
4	2	3	1	61749	848	14.742338988115079701	1	1	1248.7531559891067445	0	72	NaN	1	1	0	1	2	0
4	2	3	2	28638	1143	14.742385286255739629	0	1	1512.1035290067084134	0	NaN	NaN	0	1	1	0	1	0
4	2	3	3	35287	2020	14.742431579157710075	0	1	2860.2026510052382946	1	NaN	NaN	0	1	2	1	1	0
4	2	3	4	50252	3783	14.742477879044599831	0	1	2613.7751539936289191	0	NaN	NaN	0	1	1	0	1	0
4	2	3	5	52225	4812	14.742524169385433197	1	1	791.84320895001292229	0	22	NaN	1	1	0	1	2	0
4	2	3	6	9049	106	14.742570464382879436	0	1	2041.4726330200210214	0	NaN	NaN	0	1	1	0	1	0
4	2	3	7	19611	4361	14.742616756237111986	0	1	2654.3004279956221581	0	NaN	NaN	0	1	1	0	1	0
4	2	3	8	28286	1626	14.74266304518096149	0	1	1802.9415940400213003	0	NaN	NaN	0	1	1	0	1	0
4	2	3	9	3206	3996	14.742709344369359314	1	0	2673.7767939921468496	0	568	NaN	0	1	1	0	1	0
4	2	3	10	31091	4292	14.742755628773011267	0	1	1957.0872850017622113	0	NaN	NaN	0	1	1	0	1	0
4	2	3	11	28529	8706	14.742848224239423871	1	0	2017.7571100066415966	0	204	NaN	0	1	1	0	1	0
4	2	3	12	68179	1420	14.742894519469700754	0	1	1651.8382980138994753	0	NaN	NaN	0	1	1	0	1	0
4	2	3	13	19381	9893	14.742940816329792142	0	1	2265.2753550210036337	0	NaN	NaN	0	1	1	0	1	0
4	2	3	14	67013	7841	14.742987112724222243	0	1	2018.9951789798215032	0	NaN	NaN	0	1	1	0	1	0
4	2	3	15	5515	1803	14.743033401551656425	0	1	2287.5749070080928504	0	NaN	NaN	0	1	1	0	1	0
4	2	3	16	13257	1040	14.743079698644578457	1	0	3023.0127790127880871	0	232	NaN	0	1	1	0	1	0
4	2	3	17	26306	3284	14.743125988403335214	1	0	1930.9952479670755565	0	761	NaN	0	1	1	0	1	0
4	2	3	18	65986	1498	14.743172286194749177	0	1	2553.3939570304937661	0	NaN	NaN	0	1	1	0	1	0
4	2	3	19	49600	2485	14.743218484567478299	0	1	1768.2294700061902404	0	NaN	NaN	0	1	1	0	1	0
4	2	3	20	7601	9008	14.743311070371419191	1	1	1002.6753260171972215	0	98	291	1	1	0	1	2	0
4	2	3	21	41719	9484	14.74335735896602273	1	1	2279.2368449736386538	0	195	567	0	0	0	1	2	0
4	2	3	22	948	1994	14.743403660482726991	1	0	1924.0835520322434604	0	199	NaN	0	1	1	0	1	0
4	2	3	23	46000	625	14.743449955247342587	0	1	2465.4312959755770862	0	NaN	NaN	0	1	1	0	1	0
4	2	3	24	65780	8819	14.74349624861497432	1	1	880.46891498379409313	0	147	NaN	1	1	0	1	2	0
4	2	3	25	1804	7020	14.743542534881271422	1	0	3051.3459169887937605	1	426	NaN	0	1	1	1	1	0
4	2	3	26	42852	570	14.743588841171003878	0	1	1602.0382150309160352	0	NaN	NaN	0	1	1	0	1	0
4	2	3	27	46837	7066	14.743635132792405784	0	1	2901.2839249917306006	0	NaN	NaN	0	1	1	0	1	0
4	2	3	28	51730	7410	14.743681418476626277	0	1	2672.4380519590340555	0	NaN	NaN	0	1	1	0	1	0
4	2	3	29	51213	7306	14.743727721972391009	0	1	2327.1096330136060715	0	NaN	NaN	0	1	1	0	1	0
4	2	3	30	5915	7785	14.743820311268791556	1	1	1071.5160560212098062	0	90	NaN	1	1	0	1	2	0
4	2	3	31	47806	4152	14.7438666014932096	1	1	1003.5955979838036001	0	148	NaN	1	1	0	1	2	0
4	2	3	32	17363	1645	14.743912887061014771	1	1	2103.4249290241859853	0	682	NaN	0	0	0	1	2	0
4	2	3	33	22516	276	14.743959190673194826	0	1	2203.0100710107944906	0	NaN	NaN	0	1	1	0	1	0
4	2	3	34	32127	1475	14.744005483807995915	0	1	2258.1408830010332167	0	NaN	NaN	0	1	1	0	1	0
4	2	3	35	15701	1102	14.744051780900917947	0	1	1803.6360759870149195	0	NaN	NaN	0	1	1	0	1	0
4	2	3	36	52225	4812	14.74409807228948921	1	1	934.59921202156692743	0	30	53	1	1	0	1	2	0
4	2	3	37	47806	4152	14.744144367752596736	1	1	839.11929902387782931	0	5	154	1	1	0	1	2	0
4	2	3	38	36911	485	14.744190659606829286	1	1	1175.8772269822657108	0	83	131	1	1	0	1	2	0
4	2	3	39	40841	534	14.74423695495352149	0	1	2501.4910619938746095	0	NaN	NaN	0	1	1	0	1	0
4	2	3	40	51589	7561	14.744283241801895201	1	1	1736.9368969812057912	0	173	296	0	0	0	1	2	0
4	2	3	41	56705	7116	14.744329543667845428	0	0	2904.6392059535719454	0	NaN	NaN	0	0	0	1	2	0
4	2	3	42	65360	4035	14.744422036921605468	0	1	2575.571523979306221	0	NaN	NaN	0	1	1	0	1	0
4	2	3	43	42203	6077	14.744468326098285615	0	1	1701.7317449790425599	0	NaN	NaN	0	1	1	0	1	0
4	2	3	44	68165	4593	14.744514621095731854	0	1	2003.2712329993955791	0	NaN	NaN	0	1	1	0	1	0
4	2	3	45	16106	4442	14.744560908409766853	0	1	2203.3660740125924349	0	NaN	NaN	0	1	1	0	1	0
4	2	3	46	57829	9130	14.744607211905531585	1	1	1320.6627080217003822	0	137	NaN	1	1	0	1	2	0
4	2	3	47	61749	848	14.74465350538957864	1	1	1461.6255359724164009	0	45	118	1	1	0	1	2	0
4	2	3	48	47608	5221	14.744699797010980546	0	0	1556.1673300107941031	0	NaN	NaN	0	0	0	1	2	0
4	2	3	49	50763	5313	14.744746091542765498	1	1	1275.2955780015327036	0	133	163	1	1	0	1	2	0
4	2	3	50	69812	4893	14.744792385608889163	0	1	1715.9179860027506948	0	NaN	NaN	0	1	1	0	1	0
4	2	3	51	9028	105	14.744838678860105574	0	1	2411.0852089943364263	0	NaN	NaN	0	1	1	0	1	0
4	2	3	52	8601	1937	14.7448849679203704	0	1	1602.5477970251813531	0	NaN	NaN	0	1	1	0	1	0
4	2	3	53	53114	4900	14.744931261404417455	1	0	1861.816636985167861	0	802	NaN	0	1	1	0	1	0
4	2	3	54	62861	6851	14.745023861876688898	1	1	963.68014498148113489	0	56	59	1	1	0	1	2	0
4	2	3	55	47301	6265	14.745070144301280379	0	1	1954.0351260220631957	0	NaN	NaN	0	1	1	0	1	0
4	2	3	56	44045	1069	14.745116437552496791	1	0	1923.4772580093704164	0	276	NaN	0	1	1	0	1	0
4	2	3	57	9130	2195	14.745162740699015558	1	1	1105.5752499960362911	0	164	NaN	1	1	0	1	2	0
4	2	3	58	42516	2484	14.745209035812877119	0	1	2244.6082130190916359	0	NaN	NaN	0	1	1	0	1	0
4	2	3	59	3327	3699	14.745255322195589542	0	1	2816.3636639947071671	0	NaN	NaN	0	1	1	0	1	0
4	2	3	60	51034	3940	14.745301626389846206	0	1	2044.5820260210894048	0	NaN	NaN	0	1	1	0	1	0
4	2	3	61	17537	7054	14.745347916963510215	1	1	1186.9456419954076409	0	95	NaN	1	1	0	1	2	0
4	2	3	62	50563	2492	14.745394213125109673	0	1	2741.4984999923035502	0	NaN	NaN	0	1	1	0	1	0
4	2	3	63	9675	7629	14.745440504280850291	1	1	1461.5744990296661854	0	112	NaN	1	1	0	1	2	0
4	2	4	1	55390	5273	14.74684812338091433	1	0	2404.9685430363751948	0	247	NaN	0	1	1	0	1	0
4	2	4	2	9490	4467	14.746894427575170994	0	1	1440.454027964733541	0	NaN	NaN	0	1	1	0	1	0
4	2	4	3	58146	5604	14.746940709068439901	1	1	2335.7161760213784873	1	134	NaN	1	1	1	1	2	0
4	2	4	4	32033	4127	14.746987010119482875	1	1	958.83638999657705426	0	120	NaN	1	1	0	1	2	0
4	2	4	5	57772	5242	14.747033209190703928	0	1	1601.589586993213743	0	NaN	NaN	0	1	1	0	1	0
4	2	4	6	53892	742	14.747079499764367938	0	1	1921.6717419913038611	0	NaN	NaN	0	1	1	0	1	0
4	2	4	7	68104	5995	14.747125789755955338	0	1	1777.4280260200612247	0	NaN	NaN	0	1	1	0	1	0
4	2	4	8	5883	6183	14.747172086266800761	0	1	1616.270293015986681	0	NaN	NaN	0	1	1	0	1	0
4	2	4	9	51931	3974	14.747218379285186529	0	1	1973.7893670098856091	0	NaN	NaN	0	1	1	0	1	0
4	2	4	10	68681	3927	14.747310975333675742	0	1	1478.5420080297626555	0	NaN	NaN	0	1	1	0	1	0
4	2	4	11	9940	9913	14.747357265208847821	1	1	1637.1758879977278411	0	874	NaN	0	0	0	1	2	0
4	2	4	12	46837	7066	14.747403560439124703	1	1	936.58395402599126101	0	47	NaN	1	1	0	1	2	0
4	2	4	13	61874	853	14.747449845657683909	0	1	2116.8146299896761775	0	NaN	NaN	0	1	1	0	1	0
4	2	4	14	51558	7979	14.747496143565513194	0	1	1460.7513499795459211	0	NaN	NaN	0	1	1	0	1	0
4	2	4	15	58579	2247	14.74754244287032634	0	1	1473.8380820490419865	0	NaN	NaN	0	1	1	0	1	0
4	2	4	16	42231	4061	14.747588734142482281	1	0	1932.9795119701884687	0	855	NaN	0	1	1	0	1	0
4	2	4	17	41869	7697	14.747635023319162428	1	1	2250.4837000160478055	0	392	NaN	0	0	0	1	2	0
4	2	4	18	68266	2287	14.747681325185112655	0	1	2366.4993700222112238	0	NaN	NaN	0	1	1	0	1	0
4	2	4	19	53383	9977	14.747773912386037409	0	1	3182.8075280063785613	0	NaN	NaN	0	1	1	0	1	0
4	2	4	20	41695	6728	14.747820208081975579	0	1	2081.8179830093868077	0	NaN	NaN	0	1	1	0	1	0
4	2	4	21	61430	5811	14.747866500052623451	0	1	1241.5254379739053547	0	NaN	NaN	0	1	1	0	1	0
4	2	4	22	34209	3586	14.747912787948735058	0	1	2156.9572559674270451	0	NaN	NaN	0	1	1	0	1	0
4	2	4	23	19621	2584	14.747959084226749837	0	1	1682.4577020015567541	0	NaN	NaN	0	1	1	0	1	0
4	2	4	24	16676	5905	14.748005384346470237	0	1	2020.1180519652552903	0	NaN	NaN	0	1	1	0	1	0
4	2	4	25	69728	6619	14.748051670612767339	0	1	1283.0626549548469484	0	NaN	NaN	0	1	1	0	1	0
4	2	4	26	55390	5273	14.7480979721294716	1	1	837.97119196970015764	0	24	272	1	1	0	1	2	0
4	2	4	27	53114	4900	14.74814426526427269	1	1	856.50594299659132957	0	36	839	1	1	0	1	2	0
4	2	4	28	6691	1482	14.748190557351335883	1	1	1333.1159430090337992	0	323	NaN	0	0	0	1	2	0
4	2	4	29	65787	6719	14.748236749903298914	0	1	1676.0837159818038344	0	NaN	NaN	0	1	1	0	1	0
4	2	4	30	1804	7020	14.748283053049817681	1	1	913.36223500547930598	0	67	494	1	1	0	1	2	0
4	2	4	31	17096	5563	14.748375639785081148	0	1	2478.5277449991554022	0	NaN	NaN	0	1	1	0	1	0
4	2	4	32	21802	7950	14.748421925702132285	0	1	1963.9038510504178703	0	NaN	NaN	0	1	1	0	1	0
4	2	4	33	63659	3249	14.748468227684497833	0	1	2378.1618550419807434	0	NaN	NaN	0	1	1	0	1	0
4	2	4	34	18462	8261	14.748514521517790854	0	1	2387.3603090178221464	1	NaN	NaN	0	1	1	1	1	0
4	2	4	35	51725	8768	14.748560817446559668	0	1	1901.8328950041905046	0	NaN	NaN	0	1	1	0	1	0
4	2	4	36	53383	9977	14.748607105459086597	1	1	804.35692996252328157	0	16	NaN	1	1	0	1	2	0
4	2	4	37	62459	9537	14.74865339882671833	0	1	2106.1109889997169375	0	NaN	NaN	0	1	1	0	1	0
4	2	4	38	8701	7895	14.74869969196151942	0	1	2604.4244829681701958	0	NaN	NaN	0	1	1	0	1	0
4	2	4	39	30862	2206	14.748745993128977716	0	1	1929.4823309755884111	0	NaN	NaN	0	1	1	0	1	0
4	2	4	40	26355	9316	14.748792286613024771	0	1	1931.0860970290377736	0	NaN	NaN	0	1	1	0	1	0
4	2	4	41	7524	6378	14.748838581261225045	1	0	2117.2265770146623254	0	259	NaN	0	1	1	0	1	0
4	2	4	42	31550	4567	14.748884874279610813	0	1	1531.0442119953222573	0	NaN	NaN	0	1	1	0	1	0
4	2	4	43	21802	7950	14.748977463692426682	1	1	832.48740603448823094	0	10	NaN	1	1	0	1	2	0
4	2	4	44	35450	8037	14.749023758224211633	0	1	2371.7175510246306658	0	NaN	NaN	0	1	1	0	1	0
4	2	4	45	40540	4211	14.749070044024847448	1	0	2672.3492619930766523	0	404	NaN	0	1	1	0	1	0
4	2	4	46	16632	2604	14.749116341350600123	1	1	2490.7328220433555543	0	502	516	0	0	0	1	2	0
4	2	4	47	12803	3070	14.749162632622756064	0	1	1857.0035899756476283	0	NaN	NaN	0	1	1	0	1	0
4	2	4	48	62432	5826	14.749208938097581267	0	1	2007.0490560028702021	0	NaN	NaN	0	1	1	0	1	0
4	2	4	49	67352	2750	14.749255225877277553	0	1	2602.3450639913789928	0	NaN	NaN	0	1	1	0	1	0
4	2	4	50	5385	4522	14.749301519244909286	1	1	1647.3821810213848948	0	300	317	0	0	0	1	2	0
4	2	4	51	6392	5972	14.749347816803492606	0	1	2931.9577720016241074	0	NaN	NaN	0	1	1	0	1	0
4	2	4	52	25979	8403	14.749394111568108201	1	1	2456.4116499968804419	0	136	NaN	1	1	0	1	2	0
4	2	4	53	53892	742	14.749440304469317198	1	1	1303.7989690201357007	0	46	NaN	1	1	0	1	2	0
4	2	4	54	14933	3350	14.749486598069779575	0	1	1883.9997569448314607	0	NaN	NaN	0	1	1	0	1	0
4	2	4	55	9877	6169	14.749579190043732524	1	1	1259.5364740118384361	0	238	458	1	1	0	1	2	0
4	2	4	56	53859	740	14.749625486088916659	0	1	1485.488192003685981	0	NaN	NaN	0	1	1	0	1	0
4	2	4	57	10700	4272	14.749671778874471784	1	0	1946.0898549878038466	0	287	NaN	0	1	1	0	1	0
4	2	4	58	8942	5670	14.749718065257184207	1	0	1804.3538689962588251	0	301	NaN	0	1	1	0	1	0
4	2	4	59	30848	412	14.749764371663331985	0	1	2109.9836269859224558	0	NaN	NaN	0	1	1	0	1	0
4	2	4	60	7333	7873	14.749810662702657282	0	1	1527.6820799917913973	0	NaN	NaN	0	1	1	0	1	0
4	2	4	61	22783	282	14.749856956186704338	0	1	1468.6942269909195602	0	NaN	NaN	0	1	1	0	1	0
4	2	4	62	6349	1218	14.749903247808106244	1	1	939.87563397968187928	0	173	344	1	1	0	1	2	0
4	2	5	1	25979	8403	14.752904868451878428	1	1	1091.0388659685850143	0	10	147	1	1	0	1	2	0
4	2	5	2	56892	1122	14.752951166825369	1	0	1547.594429983291775	0	312	NaN	0	1	1	0	1	0
4	2	5	3	53859	740	14.752997453091666102	1	1	3361.2891649827361107	0	8	NaN	1	1	0	1	2	0
4	2	5	4	38184	6328	14.753043763572350144	0	1	3904.0346059482544661	1	NaN	NaN	0	1	1	1	1	0
4	2	5	5	41296	9548	14.753090045065619051	0	1	1713.8011619681492448	0	NaN	NaN	0	1	1	0	1	0
4	2	5	6	58716	9510	14.75313636043574661	0	1	2317.5735190161503851	0	NaN	NaN	0	1	1	0	1	0
4	2	5	7	19611	4361	14.753182636108249426	1	1	1103.1274669803678989	0	124	NaN	1	1	0	1	2	0
4	2	5	8	55586	1368	14.753228958230465651	0	1	2623.4676469466648996	0	NaN	NaN	0	1	1	0	1	0
4	2	5	9	61058	7912	14.753275223076343536	0	1	1932.9789949697442353	0	NaN	NaN	0	1	1	0	1	0
4	2	5	10	52294	7719	14.753321553696878254	0	1	1648.3562969951890409	0	NaN	NaN	0	1	1	0	1	0
4	2	5	11	30082	402	14.753414149046875536	0	1	2019.907333014998585	0	NaN	NaN	0	1	1	0	1	0
4	2	5	12	26349	6404	14.753460397245362401	0	1	2054.7141600400209427	0	NaN	NaN	0	1	1	0	1	0
4	2	5	13	61396	8303	14.753506747540086508	1	1	683.99627396138384938	0	139	148	1	1	0	1	2	0
4	2	5	14	33577	2937	14.753552983165718615	0	1	2372.1111770137213171	0	NaN	NaN	0	1	1	0	1	0
4	2	5	15	57842	9883	14.75359934289008379	0	1	1910.3219059761613607	0	NaN	NaN	0	1	1	0	1	0
4	2	5	16	68028	3127	14.75364557676948607	1	1	1105.2693030214868486	0	185	NaN	1	1	0	1	2	0
4	2	5	17	42852	570	14.753691927529871464	1	1	1068.1059870403259993	0	115	NaN	1	1	0	1	2	0
4	2	5	18	5879	55	14.753738158149644732	0	1	1339.9251269875094295	0	NaN	NaN	0	1	1	0	1	0
4	2	5	19	72980	4918	14.753784523927606642	0	1	2066.3495180197060108	1	NaN	NaN	0	1	1	1	1	0
4	2	5	20	20764	7027	14.753830750123597682	0	1	1507.2736229631118476	0	NaN	NaN	0	1	1	0	1	0
4	2	5	21	33284	1905	14.753923341748304665	0	1	970.406366977840662	0	NaN	NaN	0	1	1	0	1	0
4	2	5	22	34248	8442	14.753969714161939919	0	1	1132.1077350294217467	0	NaN	NaN	0	1	1	0	1	0
4	2	5	23	831	5111	14.754015928716398776	0	1	1302.3164229816757143	0	NaN	NaN	0	1	1	0	1	0
4	2	5	24	70500	6764	14.754062311840243638	0	1	1294.9461169773712754	0	NaN	NaN	0	1	1	0	1	0
4	2	5	25	44606	9665	14.754108518129214644	0	1	1656.6583490348421037	0	NaN	NaN	0	1	1	0	1	0
4	2	5	26	44440	6618	14.754154906258918345	0	1	2455.77861403580755	0	NaN	NaN	0	1	1	0	1	0
4	2	5	27	7894	8844	14.754201098927296698	0	1	1248.7478909897617996	0	NaN	NaN	0	1	1	0	1	0
4	2	5	28	69806	5631	14.754247503005899489	0	1	1992.4910459667444229	0	NaN	NaN	0	1	1	0	1	0
4	2	5	29	26436	349	14.754293693695217371	0	1	1802.5862860376946628	0	NaN	NaN	0	1	1	0	1	0
4	2	5	30	53868	6574	14.754386281943880022	0	1	2242.6941960002295673	0	NaN	NaN	0	1	1	0	1	0
4	2	5	31	44956	9972	14.754432586603797972	1	1	1501.7736720037646592	0	829	NaN	0	0	0	1	2	0
4	2	5	32	15723	6444	14.754478770773857832	0	1	2007.6688999542966485	0	NaN	NaN	0	1	1	0	1	0
4	2	5	33	2842	2830	14.754525064257904887	1	1	1655.1685399608686566	0	402	NaN	0	0	0	1	2	0
4	2	5	34	18200	8399	14.754571355413645506	0	1	2102.6898300042375922	0	NaN	NaN	0	1	1	0	1	0
4	2	5	35	45123	4244	14.754617654485628009	0	1	1729.6740380115807056	0	NaN	NaN	0	1	1	0	1	0
4	2	5	36	245	3515	14.754663943545892835	0	1	1581.2673370237462223	0	NaN	NaN	0	1	1	0	1	0
4	2	5	37	56705	7116	14.754710237146355212	1	1	787.75076195597648621	0	120	NaN	1	1	0	1	2	0
4	2	5	38	14417	8678	14.75475654099136591	0	1	1506.83203199878335	0	NaN	NaN	0	1	1	0	1	0
4	2	5	39	31762	5890	14.754802829236723483	0	1	2512.7074270276352763	1	NaN	NaN	0	1	1	1	1	0
4	2	5	40	46828	4838	14.754849130171351135	0	1	2013.208732008934021	0	NaN	NaN	0	1	1	0	1	0
4	2	5	41	50055	3861	14.754941712482832372	0	1	1639.3926849705167115	0	NaN	NaN	0	1	1	0	1	0
4	2	5	42	8208	3728	14.754988000029698014	0	1	1083.0786600126884878	0	NaN	NaN	0	1	1	0	1	0
4	2	5	43	36799	7625	14.755034298868849874	0	1	1827.9747799970209599	0	NaN	NaN	0	1	1	0	1	0
4	2	5	44	10949	6361	14.7550806007348001	0	1	1825.1241979887709022	0	NaN	NaN	0	1	1	0	1	0
4	2	5	45	18159	4637	14.755126888514496386	1	0	1478.8981759920716286	0	375	NaN	0	1	1	0	1	0
4	2	5	46	57964	2812	14.755173185491003096	0	1	1779.0400339872576296	0	NaN	NaN	0	1	1	0	1	0
4	2	5	47	72074	1303	14.755219479906372726	0	1	1107.3699590051546693	0	NaN	NaN	0	1	1	0	1	0
4	2	5	48	61225	7545	14.755265774787403643	0	1	1166.9275469612330198	0	NaN	NaN	0	1	1	0	1	0
4	2	5	49	23362	2298	14.755312061868607998	0	1	1731.3821180141530931	0	NaN	NaN	0	1	1	0	1	0
4	2	5	50	65511	5401	14.755404655821621418	0	1	2464.6146160084754229	0	NaN	NaN	0	1	1	0	1	0
4	2	5	51	19459	9776	14.755450950236991048	0	1	1409.046382992528379	0	NaN	NaN	0	1	1	0	1	0
4	2	5	52	39638	1056	14.755497247562743723	0	1	1622.4999100086279213	0	NaN	NaN	0	1	1	0	1	0
4	2	5	53	68104	5995	14.755543529987335205	1	1	952.4924219585955143	0	107	NaN	1	1	0	1	2	0
4	2	5	54	61474	5431	14.755589833599515259	0	1	1602.4375029955990613	0	NaN	NaN	0	1	1	0	1	0
4	2	5	55	22493	8593	14.755636126850731671	0	1	1302.523709018714726	0	NaN	NaN	0	1	1	0	1	0
4	2	5	56	65591	9719	14.755682413000613451	0	1	1409.3584329821169376	0	NaN	NaN	0	1	1	0	1	0
4	2	5	57	29509	6148	14.755728708463720977	1	0	2047.5556220044381917	0	449	NaN	0	1	1	0	1	0
4	2	5	58	66413	2687	14.755774913006462157	0	1	1503.7940210313536227	0	NaN	NaN	0	1	1	0	1	0
4	2	5	59	35782	4187	14.75582121079787612	1	1	1620.5311889643780887	0	203	NaN	1	1	0	1	2	0
4	2	5	60	22682	3765	14.755867492174729705	0	1	1362.7224480151198804	0	NaN	NaN	0	1	1	0	1	0
4	2	5	61	7247	4431	14.755913798697292805	0	1	2561.7392950225621462	0	NaN	NaN	0	1	1	0	1	0
4	2	5	62	44045	1069	14.755960088223218918	1	1	912.65300597297027707	0	130	407	1	1	0	1	2	0
4	2	5	63	56717	7531	14.756006384268403053	0	1	1505.3003819775767624	0	NaN	NaN	0	1	1	0	1	0
4	2	6	1	68104	5995	14.757479776744730771	1	1	827.92825601063668728	0	10	118	1	1	0	1	2	0
4	2	6	2	17235	8152	14.75752609153278172	0	1	1914.5835830131545663	0	NaN	NaN	0	1	1	0	1	0
4	2	6	3	46675	3854	14.757572365109808743	0	1	2203.3500540419481695	0	NaN	NaN	0	1	1	0	1	0
4	2	6	4	70568	2311	14.757618675124831498	0	1	1111.8137379526160657	0	NaN	NaN	0	1	1	0	1	0
4	2	6	5	69812	4893	14.757664961740374565	1	1	1620.2619120012968779	0	142	NaN	1	1	0	1	2	0
4	2	6	6	17528	1470	14.757711268961429596	0	1	1780.9823150164447725	0	NaN	NaN	0	1	1	0	1	0
4	2	6	7	2842	2830	14.757757546147331595	1	1	1053.492219012696296	0	36	439	1	1	0	1	2	0
4	2	6	8	38818	511	14.757803846150636673	1	0	2342.3201160039752722	0	550	NaN	0	1	1	0	1	0
4	2	6	9	7465	1066	14.757850138819776475	0	1	1819.2021909635514021	0	NaN	NaN	0	1	1	0	1	0
4	2	6	10	16781	8504	14.757896441966295242	0	1	1854.9888289999216795	0	NaN	NaN	0	1	1	0	1	0
4	2	6	11	70568	2311	14.757942727534100413	1	1	829.11526400130242109	0	6	NaN	1	1	0	1	2	0
4	2	6	12	3473	9040	14.758035318227484822	0	1	2284.9309470038861036	0	NaN	NaN	0	1	1	0	1	0
4	2	6	13	43089	8422	14.758081616600975394	0	1	2189.8307179799303412	0	NaN	NaN	0	1	1	0	1	0
4	2	6	14	46828	4838	14.758127906243316829	1	1	840.78382799634709954	0	36	NaN	1	1	0	1	2	0
4	2	6	15	43858	7165	14.758174207876436412	0	1	2248.5697490046732128	0	NaN	NaN	0	1	1	0	1	0
4	2	6	16	51262	4665	14.75822049065027386	1	0	1779.101905005518347	0	338	NaN	0	1	1	0	1	0
4	2	6	17	22516	276	14.758266688091680408	1	1	1485.2979289717040956	0	171	NaN	1	1	0	1	2	0
4	2	6	18	69917	6487	14.758312982739880681	0	1	2288.5744739905931056	0	NaN	NaN	0	1	1	0	1	0
4	2	6	19	72438	8383	14.75835927645675838	0	1	2490.170856995973736	0	NaN	NaN	0	1	1	0	1	0
4	2	6	20	45544	4095	14.758405569125898182	1	1	2302.2389089455828071	0	533	NaN	0	0	0	1	2	0
4	2	6	21	46462	7176	14.758451858768239617	0	1	2028.2061290345154703	0	NaN	NaN	0	1	1	0	1	0
4	2	6	22	71098	5279	14.758544448297470808	0	1	1960.7069790363311768	0	NaN	NaN	0	1	1	0	1	0
4	2	6	23	50055	3861	14.758590744575485587	1	1	1984.3482410069555044	0	44	NaN	1	1	0	1	2	0
4	2	6	24	11912	7300	14.758637039223685861	1	0	2419.5080870413221419	0	950	NaN	0	1	1	0	1	0
4	2	6	25	11009	9879	14.758683331659995019	0	1	2027.9722490231506526	0	NaN	NaN	0	1	1	0	1	0
4	2	6	26	56098	5288	14.758729630615562201	0	1	1912.1264279820024967	0	NaN	NaN	0	1	1	0	1	0
4	2	6	27	19109	8201	14.758775920607149601	0	1	1358.6118700332008302	0	NaN	NaN	0	1	1	0	1	0
4	2	6	28	22436	9458	14.758822209318168461	0	1	1856.870886986143887	0	NaN	NaN	0	1	1	0	1	0
4	2	6	29	51078	700	14.758868508157320321	0	1	1492.8639879799447954	0	NaN	NaN	0	1	1	0	1	0
4	2	6	30	61225	7545	14.758914799196645617	1	1	1402.1274189581163228	0	44	NaN	1	1	0	1	2	0
4	2	6	31	7328	9753	14.75896109314635396	0	1	2525.4844680312089622	0	NaN	NaN	0	1	1	0	1	0
4	2	6	32	10183	2981	14.759007392101921141	0	1	1262.147033994551748	0	NaN	NaN	0	1	1	0	1	0
4	2	6	33	70568	2311	14.759053687332198024	1	1	992.52319498918950558	0	21	28	1	1	0	1	2	0
4	2	6	34	15701	1102	14.759146270924247801	1	1	1761.4341339794918895	0	186	NaN	1	1	0	1	2	0
4	2	6	35	49312	2186	14.759192567318677902	1	1	2325.0271699507720768	1	475	638	0	0	2	1	2	0
4	2	6	36	4060	5676	14.759238868136890233	0	1	1332.6381689985282719	0	NaN	NaN	0	1	1	0	1	0
4	2	6	37	61922	2841	14.759285161038860679	0	1	1832.1701170061714947	0	NaN	NaN	0	1	1	0	1	0
4	2	6	38	59374	9452	14.759331448120065033	0	1	1222.7696970221586525	0	NaN	NaN	0	1	1	0	1	0
4	2	6	39	2459	6883	14.759377747774124146	0	1	1771.9465399859473109	0	NaN	NaN	0	1	1	0	1	0
4	2	6	40	8925	5686	14.759424042189493775	0	1	1573.1650600209832191	0	NaN	NaN	0	1	2	0	1	0
4	2	6	41	63992	1448	14.759470239747315645	0	1	3249.6231310069561005	1	NaN	NaN	0	1	1	1	1	0
4	2	6	42	34437	2353	14.759516529273241758	0	1	1601.8408170202746987	0	NaN	NaN	0	1	1	0	1	0
4	2	6	43	59636	7726	14.759562819846905768	0	1	1560.4560559731908143	0	NaN	NaN	0	1	1	0	1	0
4	2	6	44	54489	6890	14.75965540821198374	0	1	1653.0914180330000818	0	NaN	NaN	0	1	1	0	1	0
4	2	6	45	8877	6928	14.759701710077933967	0	1	1585.7803960097953677	0	NaN	NaN	0	1	1	0	1	0
