SUBJECT	SESSION	RUN	TRIAL	73KID	10KID	TIME	ISOLD	ISCORRECT	RT	CHANGEMIND	MEMORYRECENT	MEMORYFIRST	ISOLDCURRENT	ISCORRECTCURRENT	TOTAL1	TOTAL2	BUTTON	MISSINGDATA
2	1	1	1	46003	626	0.7310767321614548564	0	1	871.81417702231556177	0	NaN	NaN	0	1	1	0	1	0
2	1	1	2	42020	5013	0.73112308362033218145	0	1	899.36997601762413979	0	NaN	NaN	0	1	1	0	1	0
2	1	1	3	22500	4850	0.7311693849042057991	0	1	534.98888298054225743	0	NaN	NaN	0	1	1	0	1	0
2	1	1	4	61983	8823	0.73121561529114842415	0	1	525.07580301607958972	0	NaN	NaN	0	1	1	0	1	0
2	1	1	5	48145	9538	0.73126191727351397276	0	1	551.54634299105964601	0	NaN	NaN	0	1	1	0	1	0
2	1	1	6	24129	6061	0.73130828619468957186	0	1	612.93223800021223724	0	NaN	NaN	0	1	1	0	1	0
2	1	1	7	48497	4421	0.73135450552217662334	0	1	740.48722800216637552	0	NaN	NaN	0	1	1	0	1	0
2	1	1	8	47597	3858	0.73140087246429175138	0	1	609.57247699843719602	0	NaN	NaN	0	1	1	0	1	0
2	1	1	9	36218	8124	0.73144708969630300999	0	1	639.43867100169882178	0	NaN	NaN	0	1	1	0	1	0
2	1	1	10	33066	4843	0.7314934668829664588	0	1	765.2091470081359148	0	NaN	NaN	0	1	1	0	1	0
2	1	1	11	70244	7941	0.73153968038968741894	0	1	551.69720298727042973	0	NaN	NaN	0	1	1	0	1	0
2	1	1	12	19692	4523	0.73158606397919356823	0	1	472.76005599997006357	0	NaN	NaN	0	1	1	0	1	0
2	1	1	13	31380	1070	0.73167865956202149391	0	1	593.80486499867402017	0	NaN	NaN	0	1	1	0	1	0
2	1	1	14	41342	9588	0.73172485863324254751	0	1	488.10833098832517862	0	NaN	NaN	0	1	1	0	1	0
2	1	1	15	44699	4623	0.73177125339861959219	0	1	593.89603501767851412	0	NaN	NaN	0	1	1	0	1	0
2	1	1	16	52819	3185	0.73181744699832051992	0	1	702.65503900009207428	0	NaN	NaN	0	1	1	0	1	0
2	1	1	17	23934	4586	0.73186384234577417374	0	1	659.51101097743958235	0	NaN	NaN	0	1	1	0	1	0
2	1	1	18	40525	1009	0.73191003629472106695	0	1	557.65121997683309019	0	NaN	NaN	0	1	1	0	1	0
2	1	1	19	18695	8634	0.73195644188672304153	0	1	544.57365398411639035	0	NaN	NaN	0	1	1	0	1	0
2	1	1	20	16008	9648	0.73200262384489178658	0	1	516.03926898678764701	0	NaN	NaN	0	1	1	0	1	0
2	1	1	21	23841	9425	0.73204904026351869106	0	1	641.00272901123389602	0	NaN	NaN	0	1	1	0	1	0
2	1	1	22	8750	1344	0.73209514492191374302	0	1	891.9005060160998255	0	NaN	NaN	0	1	1	0	1	0
2	1	1	23	54961	7441	0.73218774062115699053	0	1	510.77530600014142692	0	NaN	NaN	0	1	1	0	1	0
2	1	1	24	37094	3902	0.73223403829615563154	0	1	518.45047899405471981	0	NaN	NaN	0	1	1	0	1	0
2	1	1	25	22591	8795	0.73228029743768274784	0	1	625.4477339971344918	0	NaN	NaN	0	1	1	0	1	0
2	1	1	26	38629	1840	0.73232660803478211164	0	1	533.66308799013495445	0	NaN	NaN	0	1	1	0	1	0
2	1	1	27	57814	1356	0.73237288277596235275	0	1	502.82042601611465216	0	NaN	NaN	0	1	1	0	1	0
2	1	1	28	51899	5506	0.73241919418796896935	0	1	839.48896900983527303	0	NaN	NaN	0	1	1	0	1	0
2	1	1	29	48618	666	0.73246546753216534853	0	1	851.88061598455533385	0	NaN	NaN	0	1	1	0	1	0
2	1	1	30	29707	8240	0.73251177114434540272	0	1	571.12227097968570888	0	NaN	NaN	0	1	1	0	1	0
2	1	1	31	17626	7232	0.73255806136876344681	0	1	669.55278697423636913	0	NaN	NaN	0	1	1	0	1	0
2	1	1	32	2548	5691	0.73260435776319354773	0	1	557.08394799148663878	0	NaN	NaN	0	1	1	0	1	0
2	1	1	33	57847	6661	0.73265064507722854614	0	1	615.51685899030417204	0	NaN	NaN	0	1	1	0	1	0
2	1	1	34	72678	2400	0.73269693402107805014	0	1	665.14269300387240946	0	NaN	NaN	0	1	1	0	1	0
2	1	1	35	2543	2252	0.73278953239787369967	0	1	520.29883698560297489	0	NaN	NaN	0	1	1	0	1	0
2	1	1	36	44981	612	0.73283582122530788183	0	1	767.77988899266347289	0	NaN	NaN	0	1	1	0	1	0
2	1	1	37	68768	1609	0.7328821143601089716	0	1	758.85252899024635553	0	NaN	NaN	0	1	1	0	1	0
2	1	1	38	15319	3579	0.73292841413058340549	0	1	589.93474900489673018	0	NaN	NaN	0	1	1	0	1	0
2	1	1	39	13145	1703	0.73297470784746110439	0	1	971.66981801274232566	0	NaN	NaN	0	1	1	0	1	0
2	1	1	40	13529	9976	0.73302100086584687233	0	1	789.36917500686831772	0	NaN	NaN	0	1	1	0	1	0
2	1	1	41	55547	5770	0.73306729376781731844	0	1	583.26117700198665261	0	NaN	NaN	0	1	1	0	1	0
2	1	1	42	19537	8748	0.73311359016224741936	0	1	881.06204901123419404	0	NaN	NaN	0	1	1	0	1	0
2	1	1	43	67627	9202	0.73315988329704850912	0	1	632.26939699961803854	0	NaN	NaN	0	1	1	0	1	0
2	1	1	44	55635	3123	0.7332061700290068984	0	1	938.50942997960373759	0	NaN	NaN	0	1	1	0	1	0
2	1	1	45	32626	436	0.73325247212778776884	0	1	627.00669901096262038	0	NaN	NaN	0	1	1	0	1	0
2	1	1	46	23934	4586	0.73334506305400282145	1	1	764.88934000371955335	0	28	NaN	1	1	0	1	2	0
2	1	1	47	36748	1499	0.73339124978519976139	0	1	704.65771001181565225	0	NaN	NaN	0	1	1	0	1	0
2	1	1	48	39269	2872	0.73343754652887582779	0	1	1074.5702909771353006	0	NaN	NaN	0	1	1	0	1	0
2	1	1	49	17169	9173	0.73348384222481399775	0	1	753.05842200759798288	0	NaN	NaN	0	1	1	0	1	0
2	1	1	50	62422	2665	0.73353012790903449059	0	1	1342.1771439898293465	0	NaN	NaN	0	1	1	0	1	0
2	1	1	51	58942	1045	0.73357642930932343006	0	1	1057.7763119945302606	0	NaN	NaN	0	1	1	0	1	0
2	1	1	52	39785	1974	0.73362271895166486502	0	1	877.62367702089250088	0	NaN	NaN	0	1	1	0	1	0
2	1	1	53	985	2268	0.73366901709232479334	0	1	946.40056599746458232	0	NaN	NaN	0	1	1	0	1	0
2	1	1	54	50444	7771	0.73371531011071056128	0	1	988.77489398000761867	0	NaN	NaN	0	1	1	0	1	0
2	1	1	55	17055	6336	0.73380789475049823523	0	1	706.20250099455006421	0	NaN	NaN	0	1	1	0	1	0
2	1	1	56	53053	727	0.73385418974794447422	0	1	593.14657701179385185	0	NaN	NaN	0	1	1	0	1	0
2	1	1	57	4931	40	0.73390048590954393148	0	1	1050.3214639902580529	0	NaN	NaN	0	1	1	0	1	0
2	1	1	58	38030	6000	0.73394677427131682634	0	1	909.98273901641368866	0	NaN	NaN	0	1	1	0	1	0
2	1	1	59	8985	7046	0.73399307439103722572	0	1	976.83925999444909394	0	NaN	NaN	0	1	1	0	1	0
2	1	1	60	1592	1607	0.73403936880640685558	0	1	980.50238200812600553	0	NaN	NaN	0	1	1	0	1	0
2	1	1	61	50558	2132	0.7340856634546071291	0	1	941.03884202195331454	0	NaN	NaN	0	1	1	0	1	0
2	1	1	62	7239	5352	0.73413195658940821886	0	1	1005.7687649969011545	0	NaN	NaN	0	1	1	0	1	0
2	1	1	63	17445	2514	0.73417825193610042334	0	1	1001.6575169865973294	0	NaN	NaN	0	1	1	0	1	0
2	1	2	1	4983	5730	0.73600318480748683214	0	1	1061.7191799974534661	0	NaN	NaN	0	1	1	0	1	0
2	1	2	2	28151	4135	0.73604949063155800104	0	1	1070.8670630119740963	0	NaN	NaN	0	1	1	0	1	0
2	1	2	3	69581	5169	0.7360957686323672533	0	1	1016.5808520105201751	0	NaN	NaN	0	1	1	0	1	0
2	1	2	4	12204	5821	0.73614207783248275518	0	1	1188.0877400108147413	0	NaN	NaN	0	1	1	0	1	0
2	1	2	5	58806	8842	0.73618835629895329475	0	1	1154.7593699942808598	0	NaN	NaN	0	1	1	0	1	0
2	1	2	6	28151	4135	0.73623465793207287788	1	1	849.00112400646321476	0	3	NaN	1	1	0	1	2	0
2	1	2	7	34370	4990	0.73628094454761594534	0	0	903.02128999610431492	0	NaN	NaN	0	0	0	1	2	0
2	1	2	8	36146	9955	0.7363272480433806777	0	1	1045.0533309776801616	0	NaN	NaN	0	1	1	0	1	0
2	1	2	9	26259	7331	0.7363735404796898365	0	1	1101.8759669968858361	0	NaN	NaN	0	1	1	0	1	0
2	1	2	10	62449	3470	0.7364198354771360755	0	1	1031.5143850166350603	0	NaN	NaN	0	1	1	0	1	0
2	1	2	11	71218	9913	0.73646613233722746372	0	1	1091.8397509958595037	0	NaN	NaN	0	1	1	0	1	0
2	1	2	12	61309	3207	0.73655871767550706863	0	1	775.39424400310963392	0	NaN	NaN	0	1	1	0	1	0
2	1	2	13	2226	5799	0.73660501022823154926	0	1	1181.262450001668185	0	NaN	NaN	0	1	1	0	1	0
2	1	2	14	59796	4068	0.73665129614528268576	0	1	1340.8479290083050728	0	NaN	NaN	0	1	1	0	1	0
2	1	2	15	25152	2204	0.73669759370386600494	0	1	1532.7230800176039338	0	NaN	NaN	0	1	1	0	1	0
2	1	2	16	37882	7081	0.7367438911460340023	0	1	956.30869601154699922	0	NaN	NaN	0	1	1	0	1	0
2	1	2	17	59935	3632	0.7367901861434802413	0	1	1215.1513270218856633	0	NaN	NaN	0	1	1	0	1	0
2	1	2	18	53955	3444	0.73683647916186600924	0	1	1258.0261029943358153	0	NaN	NaN	0	1	1	0	1	0
2	1	2	19	37937	2840	0.73688277450855821371	0	1	1401.9982750178314745	0	NaN	NaN	0	1	1	0	1	0
2	1	2	20	56366	1538	0.7369290677597746253	0	1	1406.0328440100420266	0	NaN	NaN	0	1	1	0	1	0
2	1	2	21	33690	8951	0.73702165484428405762	0	1	690.22486999165266752	0	NaN	NaN	0	1	1	0	1	0
2	1	2	22	51621	8009	0.7370679463492706418	0	1	1229.9945370177738369	0	NaN	NaN	0	1	1	0	1	0
2	1	2	23	27019	5772	0.73711424402426928282	0	1	1219.290869019459933	0	NaN	NaN	0	1	1	0	1	0
2	1	2	24	64046	5200	0.73716044693719595671	0	1	1233.0487990111578256	0	NaN	NaN	0	1	1	0	1	0
2	1	2	25	43768	7984	0.73720673122443258762	0	1	1231.3967169902753085	0	NaN	NaN	0	1	1	0	1	0
2	1	2	26	59677	9865	0.73725302843376994133	0	1	1365.8261250238865614	0	NaN	NaN	0	1	1	0	1	0
2	1	2	27	11300	7367	0.73729931889101862907	0	1	1213.0057979957200587	0	NaN	NaN	0	1	1	0	1	0
2	1	2	28	32626	436	0.73734561249148100615	1	1	864.03220999636687338	0	45	NaN	1	1	0	1	2	0
2	1	2	29	49483	3014	0.73739191389176994562	0	1	1102.6347799925133586	0	NaN	NaN	0	1	1	0	1	0
2	1	2	30	51853	3569	0.73743820085655897856	0	1	1044.1480469889938831	0	NaN	NaN	0	1	1	0	1	0
2	1	2	31	69397	6871	0.73753079259768128395	0	1	903.01410399843007326	0	NaN	NaN	0	1	1	0	1	0
2	1	2	32	35304	4263	0.73757708771154284477	0	1	1205.7008290139492601	0	NaN	NaN	0	1	1	0	1	0
2	1	2	33	3939	3694	0.73762338433880358934	0	1	1103.9708299795165658	0	NaN	NaN	0	1	1	0	1	0
2	1	2	34	10198	5322	0.73766967363189905882	0	1	1193.3056919951923192	0	NaN	NaN	0	1	1	0	1	0
2	1	2	35	26354	4061	0.73771597002632915974	0	1	1114.2792320169974118	0	NaN	NaN	0	1	1	0	1	0
2	1	2	36	20760	7985	0.737762266187928617	0	1	870.40872999932616949	0	NaN	NaN	0	1	1	0	1	0
2	1	2	37	69807	6041	0.73780855652876198292	0	1	1172.3315060080494732	0	NaN	NaN	0	1	1	0	1	0
2	1	2	38	31933	6142	0.73785485699772834778	0	1	1255.3970360022503883	0	NaN	NaN	0	1	1	0	1	0
2	1	2	39	59833	6843	0.73790114803705364466	0	1	1206.6241319989785552	0	NaN	NaN	0	1	1	0	1	0
2	1	2	40	52323	7442	0.73794744233600795269	0	1	1591.8052089982666075	0	NaN	NaN	0	1	1	0	1	0
2	1	2	41	47020	1108	0.7380400307010859251	0	1	1103.2764740230049938	0	NaN	NaN	0	1	1	0	1	0
2	1	2	42	42228	9936	0.73808632860891520977	0	1	702.26395400823093951	0	NaN	NaN	0	1	1	0	1	0
2	1	2	43	47326	2757	0.73813261464238166809	0	1	1180.3419829811900854	0	NaN	NaN	0	1	2	0	1	0
2	1	2	44	69268	9658	0.73817890568170696497	0	1	1204.2368669935967773	0	NaN	NaN	0	1	1	0	1	0
2	1	2	45	69581	5169	0.73822520661633461714	1	1	727.87935301312245429	0	41	NaN	1	1	0	1	2	0
2	1	2	46	72624	3376	0.73827150173019617796	0	1	930.54285302059724927	0	NaN	NaN	0	1	1	0	1	0
2	1	2	47	60657	7287	0.73831779591273516417	0	1	1088.220297999214381	0	NaN	NaN	0	1	2	0	1	0
2	1	2	48	11410	5363	0.73836408776696771383	0	1	1144.5516980020329356	0	NaN	NaN	0	1	1	0	1	0
2	1	2	49	57804	5834	0.73841028579045087099	0	1	1576.6916289867367595	0	NaN	NaN	0	1	1	0	1	0
2	1	2	50	40033	6448	0.73845657729543745518	0	1	1335.0874079915229231	0	NaN	NaN	0	1	1	0	1	0
2	1	2	51	39603	4186	0.73850287008099257946	0	1	1258.9034420088864863	0	NaN	NaN	0	1	1	0	1	0
2	1	2	52	62212	9715	0.73854917183052748442	0	1	1415.8041490009054542	0	NaN	NaN	0	1	1	0	1	0
2	1	2	53	19446	1430	0.73864175856579095125	0	1	1120.9088549949228764	0	NaN	NaN	0	1	1	0	1	0
2	1	2	54	28904	9621	0.73868805111851543188	0	1	1212.2687340015545487	0	NaN	NaN	0	1	1	0	1	0
2	1	2	55	64363	7112	0.73873434890992939472	0	1	863.81083299056626856	0	NaN	NaN	0	1	1	0	1	0
2	1	2	56	28873	9845	0.73878064192831516266	0	1	1303.0371329805348068	0	NaN	NaN	0	1	1	0	1	0
2	1	2	57	39707	7473	0.73882693436462432146	0	1	1647.183475986821577	0	NaN	NaN	0	1	1	0	1	0
2	1	2	58	6432	60	0.73887323413509875536	0	1	1307.4988070002291352	0	NaN	NaN	0	1	1	0	1	0
2	1	2	59	47326	2757	0.73891952598933130503	1	1	718.94402700127102435	0	15	NaN	1	1	0	1	2	0
2	1	2	60	19684	2704	0.7389658105093985796	0	1	1054.4499380048364401	0	NaN	NaN	0	1	1	0	1	0
2	1	2	61	18695	8634	0.73901211167685687542	1	0	1351.4001139847096056	0	104	NaN	1	0	1	0	1	0
2	1	2	62	68740	4900	0.7390584087697789073	0	1	1167.5181449973024428	0	NaN	NaN	0	1	1	0	1	0
2	1	3	1	30533	7336	0.74065862421412020922	0	1	1412.6292130094952881	0	NaN	NaN	0	1	1	0	1	0
2	1	3	2	70336	970	0.7407049243338406086	0	1	1425.4293029953259975	0	NaN	NaN	0	1	1	0	1	0
2	1	3	3	69020	4229	0.74075120955239981413	0	1	1212.2186349879484624	0	NaN	NaN	0	1	1	0	1	0
2	1	3	4	43875	3770	0.74079751479439437389	0	1	1268.7369659834075719	0	NaN	NaN	0	1	1	0	1	0
2	1	3	5	66193	3284	0.74084379419218748808	0	1	1370.2903240045998245	0	NaN	NaN	0	1	1	0	1	0
2	1	3	6	61214	6316	0.74089009978342801332	0	1	1200.7152570004109293	0	NaN	NaN	0	1	1	0	1	0
2	1	3	7	72375	1266	0.74093638383783400059	0	1	1402.3825050098821521	0	NaN	NaN	0	1	1	0	1	0
2	1	3	8	36577	479	0.74098268535453826189	0	1	1127.684962993953377	0	NaN	NaN	0	1	1	0	1	0
2	1	3	9	17552	6277	0.74102896405383944511	0	1	1154.3567050248384476	0	NaN	NaN	0	1	1	0	1	0
2	1	3	10	12528	9754	0.74107526708394289017	0	1	1032.8563409857451916	0	NaN	NaN	0	1	1	0	1	0
2	1	3	11	60784	7300	0.74116786429658532143	0	1	825.47707899357192218	0	NaN	NaN	0	1	1	0	1	0
2	1	3	12	6742	1104	0.74121414963155984879	0	1	1135.0994719832669944	0	NaN	NaN	0	1	1	0	1	0
2	1	3	13	67455	7313	0.74126044777221977711	0	1	1430.391766014508903	0	NaN	NaN	0	1	1	0	1	0
2	1	3	14	3678	3250	0.741306735435500741	0	1	1419.9183830060064793	0	NaN	NaN	0	1	1	0	1	0
2	1	3	15	9433	6726	0.74135303311049938202	0	1	1525.494764995528385	0	NaN	NaN	0	1	1	0	1	0
2	1	3	16	8827	8054	0.74139931588433682919	0	1	1667.0290069887414575	0	NaN	NaN	0	1	1	0	1	0
2	1	3	17	8120	7613	0.74144563241861760616	0	1	1403.4418779774568975	0	NaN	NaN	0	1	1	0	1	0
2	1	3	18	41994	6236	0.74149191169999539852	0	1	1164.1516840027179569	0	NaN	NaN	0	1	1	0	1	0
2	1	3	19	4355	2259	0.74153821333311498165	0	1	1390.580049017444253	0	NaN	NaN	0	1	1	0	1	0
2	1	3	20	3424	3968	0.74158449866808950901	0	1	1229.5523759967181832	0	NaN	NaN	0	1	1	0	1	0
2	1	3	21	23617	2980	0.74163078865967690945	0	1	1124.7283909760881215	0	NaN	NaN	0	1	1	0	1	0
2	1	3	22	70801	9718	0.7416770899435505271	0	1	1275.1409259799402207	0	NaN	NaN	0	1	1	0	1	0
2	1	3	23	68936	1550	0.74172338610514998436	0	1	1154.8312430095393211	0	NaN	NaN	0	1	1	0	1	0
2	1	3	24	23617	2980	0.74176967155653983355	1	1	811.89806901966221631	0	2	NaN	1	1	0	1	2	0
2	1	3	25	6573	6274	0.74186226620804518461	0	1	1061.9590980059001595	0	NaN	NaN	0	1	1	0	1	0
2	1	3	26	34456	6666	0.74190856353379786015	0	1	1146.3865980040282011	0	NaN	NaN	0	1	1	0	1	0
2	1	3	27	9886	3580	0.74195485387463122606	0	1	1332.0165000041015446	0	NaN	NaN	0	1	1	0	1	0
2	1	3	28	57047	791	0.74200114503037184477	0	1	1204.2220959847327322	0	NaN	NaN	0	1	1	0	1	0
2	1	3	29	50444	7771	0.74204744701273739338	1	1	892.24905901937745512	0	99	NaN	1	1	0	1	2	0
2	1	3	30	20760	7985	0.7420937408460304141	1	1	788.5817789938300848	0	55	NaN	1	1	0	2	2	0
2	1	3	31	54042	5651	0.74214003316592425108	0	1	837.32435302226804197	0	NaN	NaN	0	1	1	0	1	0
2	1	3	32	11403	4786	0.74218623002525418997	0	1	870.53949898108839989	0	NaN	NaN	0	1	1	0	1	0
2	1	3	33	16265	5910	0.74223251629155129194	0	0	1076.9684370025061071	0	NaN	NaN	0	0	0	1	2	0
2	1	3	34	41669	6588	0.74227881780825555325	0	1	1175.6423150072805583	0	NaN	NaN	0	1	1	0	1	0
2	1	3	35	30615	5925	0.74232511513400822878	0	1	1181.2109239981509745	0	NaN	NaN	0	1	1	0	1	0
2	1	3	36	22618	5699	0.74241769744548946619	0	1	835.29341101530008018	0	NaN	NaN	0	1	1	0	1	0
2	1	3	37	71870	3719	0.74246399069670587778	0	1	1375.8613170066382736	0	NaN	NaN	0	1	1	0	1	0
2	1	3	38	1367	5440	0.74251028115395456553	0	1	1041.9699700141791254	0	NaN	NaN	0	1	1	0	1	0
2	1	3	39	32515	9470	0.74255658069159835577	0	1	1226.5636299853213131	0	NaN	NaN	0	1	1	0	1	0
2	1	3	40	27012	1330	0.7426028780173510313	0	1	1202.1445599966682494	0	NaN	NaN	0	1	1	0	1	0
2	1	3	41	41273	8935	0.74264916602987796068	0	1	1103.5571259853895754	0	NaN	NaN	0	1	1	0	1	0
2	1	3	42	7660	80	0.74269546393770724535	0	1	1168.8830369967035949	0	NaN	NaN	0	1	1	0	1	0
2	1	3	43	49803	2159	0.74274175381287932396	0	1	1091.5299569896887988	0	NaN	NaN	0	1	1	0	1	0
2	1	3	44	31820	1866	0.74278805498033761978	0	1	1026.3603820058051497	0	NaN	NaN	0	1	1	0	1	0
2	1	3	45	8080	5965	0.74288064392749220133	0	1	1263.8303909916430712	0	NaN	NaN	0	1	1	0	1	0
2	1	3	46	8629	7512	0.74292694067116826773	0	1	1136.0665689862798899	0	NaN	NaN	0	1	1	0	1	0
2	1	3	47	5667	4025	0.7429732269374653697	0	1	1217.065122997155413	0	NaN	NaN	0	1	1	0	1	0
2	1	3	48	5667	4025	0.74301952635869383812	1	1	754.3237909849267453	0	0	NaN	1	1	0	1	2	0
2	1	3	49	30374	403	0.74306581984274089336	0	1	802.85878299036994576	0	NaN	NaN	0	1	1	0	1	0
2	1	3	50	39459	1665	0.74311211309395730495	0	1	1117.8356469899881631	0	NaN	NaN	0	1	1	0	1	0
2	1	3	51	4988	9667	0.74315841065254062414	0	1	1259.519276994979009	0	NaN	NaN	0	1	1	0	1	0
2	1	3	52	25960	340	0.74320469354279339314	0	0	972.70381200360134244	0	NaN	NaN	0	0	0	1	2	0
2	1	3	53	60333	6692	0.74325099540874361992	0	1	844.18935401481576264	0	NaN	NaN	0	1	1	0	1	0
2	1	3	54	57869	3824	0.74334358749911189079	0	1	1571.7066859942860901	0	NaN	NaN	0	1	1	0	1	0
2	1	3	55	7914	1160	0.7433897852897644043	0	1	1335.2520100015681237	0	NaN	NaN	0	1	1	0	1	0
2	1	3	56	8985	7046	0.74343607574701309204	1	0	1151.7879099992569536	0	121	NaN	1	0	1	0	1	0
2	1	3	57	8579	7852	0.74348236923106014729	0	1	1162.0168530207592994	0	NaN	NaN	0	1	1	0	1	0
2	1	3	58	3971	5291	0.74352865712717175484	0	1	1403.0129300081171095	0	NaN	NaN	0	1	1	0	1	0
2	1	3	59	23867	3595	0.74357495957519859076	0	1	1362.0921520050615072	0	NaN	NaN	0	1	1	0	1	0
2	1	3	60	21790	2325	0.74362125061452388763	0	1	1358.4741750091779977	0	NaN	NaN	0	1	1	0	1	0
2	1	3	61	33116	4285	0.74366754502989351749	0	1	1411.1071650113444775	0	NaN	NaN	0	1	1	0	1	0
2	1	3	62	57417	8561	0.74371383211109787226	0	1	1384.3729270156472921	0	NaN	NaN	0	1	1	0	1	0
2	1	3	63	49483	3014	0.74376013351138681173	1	1	708.54861199040897191	0	95	NaN	1	1	0	1	2	0
2	1	4	1	30374	403	0.74534270260483026505	1	1	1260.172125999815762	0	14	NaN	1	1	0	1	2	0
2	1	4	2	44981	612	0.74538900854531675577	1	1	1737.4214449955616146	0	153	NaN	1	1	0	1	2	0
2	1	4	3	39117	4687	0.74543528852518647909	0	1	964.02858701185323298	0	NaN	NaN	0	1	1	0	1	0
2	1	4	4	23841	9425	0.74548159074038267136	1	1	1302.0831239991821349	0	170	NaN	1	1	0	1	2	0
2	1	4	5	22717	7750	0.74552788317669183016	0	1	1302.4184320238418877	0	NaN	NaN	0	1	1	0	1	0
2	1	4	6	22340	3194	0.74557417340110987425	0	0	1191.3010290008969605	0	NaN	NaN	0	0	0	1	2	0
2	1	4	7	27946	2628	0.74562047119252383709	0	1	1134.526934998575598	0	NaN	NaN	0	1	1	0	1	0
2	1	4	8	18290	9722	0.74566678004339337349	0	1	1215.8748159999959171	0	NaN	NaN	0	1	1	0	1	0
2	1	4	9	57417	8561	0.74571305129211395979	1	1	903.79972901428118348	0	9	NaN	1	1	0	1	2	0
2	1	4	10	29074	2670	0.74575935048051178455	0	1	837.74579499731771648	0	NaN	NaN	0	1	1	0	1	0
2	1	4	11	63028	5109	0.74585193267557770014	0	0	1271.2481349881272763	0	NaN	NaN	0	0	0	1	2	0
2	1	4	12	51302	3457	0.74589814140927046537	0	1	2154.8264549928717315	0	NaN	NaN	0	1	1	0	1	0
2	1	4	13	69768	9972	0.7459444334963336587	0	1	2001.9292910001240671	0	NaN	NaN	0	1	1	0	1	0
2	1	4	14	65415	899	0.7459907263983041048	0	1	1516.1327469977550209	0	NaN	NaN	0	1	1	0	1	0
2	1	4	15	8602	5741	0.74603702186141163111	0	1	970.66599800018593669	0	NaN	NaN	0	1	1	0	1	0
2	1	4	16	42722	3831	0.74608331720810383558	0	1	1202.8252859890926629	0	NaN	NaN	0	1	1	0	1	0
2	1	4	17	11472	3799	0.74612961127422749996	0	1	1062.8648389829322696	0	NaN	NaN	0	1	1	0	1	0
2	1	4	18	68798	2517	0.74617590464185923338	0	1	1022.6830369792878628	0	NaN	NaN	0	1	1	0	1	0
2	1	4	19	28452	6504	0.74622219137381762266	0	1	893.46362801734358072	0	NaN	NaN	0	1	1	0	1	0
2	1	4	20	71928	3548	0.74631478579249233007	0	1	1305.6640919821802527	0	NaN	NaN	0	1	1	0	1	0
2	1	4	21	8951	6399	0.74636107904370874166	0	1	1322.798717999830842	0	NaN	NaN	0	1	1	0	1	0
2	1	4	22	12494	3095	0.74640737380832433701	0	1	1304.0472920110914856	0	NaN	NaN	0	1	1	0	1	0
2	1	4	23	30526	9021	0.74645366461481899023	0	1	1641.5071530209388584	0	NaN	NaN	0	1	1	0	1	0
2	1	4	24	33457	9121	0.74649996496737003326	0	1	1932.6519999885931611	0	NaN	NaN	0	1	1	0	1	0
2	1	4	25	8579	7852	0.7465462506515905261	1	1	943.65493999794125557	0	30	NaN	1	1	0	1	2	0
2	1	4	26	47020	1108	0.74659254716243594885	1	1	1022.7268129820004106	0	109	NaN	1	1	0	1	2	0
2	1	4	27	66800	8441	0.74663884949404746294	0	1	1218.619301012950018	0	NaN	NaN	0	1	1	0	1	0
2	1	4	28	64704	9826	0.74668513855431228876	0	1	1240.1799590152222663	0	NaN	NaN	0	1	1	0	1	0
2	1	4	29	24485	7559	0.74673143052496016026	0	1	1414.5126180083025247	0	NaN	NaN	0	1	1	0	1	0
2	1	4	30	23291	2880	0.74682402273174375296	0	1	1402.2179780004080385	0	NaN	NaN	0	1	1	0	1	0
2	1	4	31	68986	9949	0.74687031668145209551	0	1	1289.4002399989403784	0	NaN	NaN	0	1	1	0	1	0
2	1	4	32	54961	7441	0.74691661214455962181	1	1	934.24941398552618921	0	196	NaN	1	1	0	1	2	0
2	1	4	33	63243	4751	0.74696289619896560907	0	1	1093.2392310060095042	0	NaN	NaN	0	1	1	0	1	0
2	1	4	34	3103	5679	0.74700919282622635365	0	1	1231.6062019963283092	0	NaN	NaN	0	1	1	0	1	0
2	1	4	35	59677	9865	0.74705548537895083427	1	1	847.6160310092382133	0	133	NaN	1	1	0	1	2	0
2	1	4	36	3321	1645	0.74710178491659462452	0	1	931.91032900358550251	0	NaN	NaN	0	1	1	0	1	0
2	1	4	37	72375	1266	0.7471479856176301837	1	1	1078.0931029876228422	0	92	NaN	1	1	0	1	2	0
2	1	4	38	7461	1549	0.74719428014941513538	0	1	839.66853099991567433	0	NaN	NaN	0	1	1	0	1	0
2	1	4	39	69020	4229	0.74724056769628077745	1	1	1688.3453210175503045	0	98	NaN	1	1	0	1	2	0
2	1	4	40	55369	9562	0.74728686187881976366	0	1	2016.2684870010707527	0	NaN	NaN	0	1	1	0	1	0
2	1	4	41	31414	6187	0.74737944814842194319	0	1	1477.8908209991641343	0	NaN	NaN	0	1	1	0	1	0
2	1	4	42	19537	8748	0.74742575513664633036	1	0	3219.6552320092450827	1	187	NaN	1	0	1	2	1	0
2	1	4	43	14599	8374	0.74747204489540308714	0	1	2829.3948030041065067	0	NaN	NaN	0	1	1	0	1	0
2	1	4	44	42172	559	0.74751833593472838402	0	1	922.97004300053231418	0	NaN	NaN	0	1	1	0	1	0
2	1	4	45	5603	53	0.74756463267840445042	0	1	993.04098900756798685	0	NaN	NaN	0	1	1	0	1	0
2	1	4	46	26181	8043	0.74761092662811279297	0	1	1215.8709520008414984	0	NaN	NaN	0	1	1	0	1	0
2	1	4	47	42397	8972	0.74765721941366791725	0	1	1023.2559669821057469	0	NaN	NaN	0	1	1	0	1	0
2	1	4	48	32236	5860	0.7477035103365778923	0	1	1091.7559079825878143	0	NaN	NaN	0	1	1	0	1	0
2	1	4	49	3218	3756	0.74774980754591524601	0	1	1280.8344810036942363	0	NaN	NaN	0	1	1	0	1	0
2	1	4	50	61161	4734	0.74779610312543809414	0	1	1202.0581529941409826	0	NaN	NaN	0	1	1	0	1	0
2	1	4	51	43411	8985	0.74784239602740854025	0	0	1502.4791429750621319	0	NaN	NaN	0	0	0	1	2	0
2	1	4	52	40454	5862	0.74788868834730237722	0	1	1017.9276809794828296	0	NaN	NaN	0	1	1	0	1	0
2	1	4	53	62591	1681	0.74798127496615052223	0	1	1029.8280789866112173	0	NaN	NaN	0	1	1	0	1	0
2	1	4	54	8827	8054	0.74802757473662495613	1	1	1405.3321329993195832	0	100	NaN	1	1	0	1	2	0
2	1	4	55	37274	1983	0.74807386787142604589	0	1	889.92246700217947364	0	NaN	NaN	0	1	1	0	1	0
2	1	4	56	63441	7973	0.74812016135547310114	0	1	1238.8245280017144978	0	NaN	NaN	0	1	1	0	1	0
2	1	4	57	17065	2469	0.74816644936800003052	0	1	1232.6909620023798198	0	NaN	NaN	0	1	1	0	1	0
2	1	4	58	21602	265	0.74821275263093411922	0	1	1502.4005519808270037	0	NaN	NaN	0	1	1	0	1	0
2	1	4	59	62303	860	0.74825904518365859985	0	1	1523.845340998377651	0	NaN	NaN	0	1	1	0	1	0
2	1	4	60	23658	3951	0.74830533156637102365	0	1	1250.5758970219176263	0	NaN	NaN	0	1	1	0	1	0
2	1	4	61	53955	3444	0.74835163436364382505	1	1	858.25808800291270018	0	167	NaN	1	1	0	1	2	0
2	1	4	62	5302	45	0.74839792493730783463	0	1	730.13134501525200903	0	NaN	NaN	0	1	1	0	1	0
2	1	5	1	15493	187	0.75121804710943251848	0	1	1564.8447719868272543	0	NaN	NaN	0	1	1	0	1	0
2	1	5	2	19580	6960	0.75126434164121747017	0	1	1277.3436470015440136	0	NaN	NaN	0	1	1	0	1	0
2	1	5	3	46107	9857	0.75131063361186534166	0	1	1383.949937007855624	0	NaN	NaN	0	1	1	0	1	0
2	1	5	4	18795	9133	0.75135693803895264864	0	1	1863.9353439793922007	0	NaN	NaN	0	1	1	0	1	0
2	1	5	5	66864	8620	0.75140323012601584196	0	1	1675.8393950003664941	0	NaN	NaN	0	1	1	0	1	0
2	1	5	6	25288	323	0.75144952419213950634	0	1	1211.0014299978502095	0	NaN	NaN	0	1	1	0	1	0
2	1	5	7	24928	7974	0.75149581360165029764	0	1	1234.5212779764551669	0	NaN	NaN	0	1	1	0	1	0
2	1	5	8	72813	3060	0.75154210592154413462	0	1	1482.5826479936949909	0	NaN	NaN	0	1	1	0	1	0
2	1	5	9	67261	3271	0.75158839416690170765	0	1	1265.0094639975577593	0	NaN	NaN	0	1	1	0	1	0
2	1	5	10	16931	5081	0.75163470476400107145	0	1	1467.4278640013653785	0	NaN	NaN	0	1	1	0	1	0
2	1	5	11	37674	4741	0.75172729301266372204	0	1	1101.7736560024786741	0	NaN	NaN	0	1	1	0	1	0
2	1	5	12	59591	1085	0.75177356915082782507	0	1	1181.8911049922462553	0	NaN	NaN	0	1	1	0	1	0
2	1	5	13	28556	6570	0.75181986286770552397	0	1	1028.2586840039584786	0	NaN	NaN	0	1	1	0	1	0
2	1	5	14	61161	4734	0.75186615821439772844	1	NaN	NaN	NaN	25	NaN	1	NaN	0	0	NaN	0
2	1	5	15	21602	265	0.75191244867164641619	1	1	1153.5371349891647696	0	18	NaN	1	1	0	1	2	0
2	1	5	16	23617	2980	0.75195875135250389576	1	1	1137.3750719940289855	0	116	119	1	1	0	1	2	0
2	1	5	17	44744	6150	0.7520050370367243886	0	1	1004.1524419793859124	0	NaN	NaN	0	1	1	0	1	0
2	1	5	18	6559	66	0.75205133506096899509	0	1	1402.6928539969958365	0	NaN	NaN	0	1	1	0	1	0
2	1	5	19	57313	5550	0.75209763599559664726	0	1	2247.9095429880544543	0	NaN	NaN	0	1	1	0	1	0
2	1	5	20	56852	6106	0.75214392016641795635	0	1	1375.8140369900502264	0	NaN	NaN	0	1	1	0	1	0
2	1	5	21	63441	7973	0.7521901233121752739	1	1	867.27682498167268932	0	26	NaN	1	1	0	1	2	0
2	1	5	22	69452	4401	0.75223641935735940933	0	1	1177.9380149964708835	0	NaN	NaN	0	1	1	0	1	0
2	1	5	23	40414	2727	0.75232900714036077261	0	1	1381.5736809920053929	0	NaN	NaN	0	1	1	0	1	0
2	1	5	24	33150	6036	0.75237530807498842478	0	1	1079.9750720034353435	0	NaN	NaN	0	1	1	0	1	0
2	1	5	25	71135	7741	0.75242159701883792877	0	1	1433.1353520101401955	0	NaN	NaN	0	1	1	0	1	0
2	1	5	26	62760	2387	0.75246788701042532921	0	1	1429.8488110071048141	0	NaN	NaN	0	1	1	0	1	0
2	1	5	27	36246	7130	0.75251417839899659157	0	1	1484.1790209757164121	0	NaN	NaN	0	1	1	0	1	0
2	1	5	28	53457	6647	0.75256048084702342749	0	1	1363.1457709998358041	0	NaN	NaN	0	1	1	0	1	0
2	1	5	29	30615	5925	0.75260677596088498831	1	1	835.33392200479283929	0	118	NaN	1	1	0	1	2	0
2	1	5	30	7757	3686	0.75265305838547646999	0	1	1204.4918210012838244	0	NaN	NaN	0	1	1	0	1	0
2	1	5	31	70336	970	0.75269936106633394957	1	1	1432.4260779831092805	0	153	NaN	1	1	0	1	2	0
2	1	5	32	16724	201	0.75274565513245761395	0	1	1106.8113029759842902	0	NaN	NaN	0	1	1	0	1	0
2	1	5	33	39117	4687	0.7527919434942305088	1	1	1463.8716179761104286	0	91	NaN	1	1	0	1	2	0
2	1	5	34	62760	2387	0.75288453022949397564	1	1	852.14421499404124916	0	7	NaN	1	1	0	1	2	0
2	1	5	35	71846	6349	0.752930827671661973	0	1	1283.5820050095207989	0	NaN	NaN	0	1	1	0	1	0
2	1	5	36	51302	3457	0.75297711696475744247	1	0	1642.4893380026333034	0	85	NaN	1	0	1	0	1	0
2	1	5	37	65647	5237	0.75302341941278427839	0	1	1237.3334909789264202	0	NaN	NaN	0	1	1	0	1	0
2	1	5	38	65647	5237	0.75306971592362970114	1	1	781.15447901654988527	0	0	NaN	1	1	0	1	2	0
2	1	5	39	69581	5169	0.75311600556597113609	1	1	1015.008025016868487	0	180	222	1	1	0	1	2	0
2	1	5	40	39365	2284	0.75316230638418346643	0	1	1979.7233030258212239	0	NaN	NaN	0	1	1	0	1	0
2	1	5	41	71138	4210	0.7532085904385894537	0	1	1814.125432021683082	0	NaN	NaN	0	1	1	0	1	0
2	1	5	42	16517	3597	0.75325489183887839317	0	1	1339.0262309985700995	0	NaN	NaN	0	1	1	0	1	0
2	1	5	43	51438	2768	0.75334747752640396357	0	1	891.64182698004879057	0	NaN	NaN	0	1	1	0	1	0
2	1	5	44	71528	5714	0.75339377380441874266	0	0	2205.3249560121912509	0	NaN	NaN	0	0	0	1	2	0
2	1	5	45	8579	7852	0.75344005972146987915	1	1	832.17818601406179368	0	81	112	1	1	0	1	2	0
2	1	5	46	19000	9788	0.75348625762853771448	0	1	1341.8533749936614186	0	NaN	NaN	0	1	1	0	1	0
2	1	5	47	4360	9094	0.75353255565278232098	0	1	1073.6823169863782823	0	NaN	NaN	0	1	1	0	1	0
2	1	5	48	55513	2607	0.75357885449193418026	0	1	1129.7890659770928323	0	NaN	NaN	0	1	1	0	1	0
2	1	5	49	58631	9272	0.75362513947766274214	0	1	1486.1232239927630872	0	NaN	NaN	0	1	1	0	1	0
2	1	5	50	27733	5192	0.75367143785115331411	0	1	1346.5743160049896687	0	NaN	NaN	0	1	1	0	1	0
2	1	5	51	51525	7185	0.75371773552615195513	0	1	1373.509722005110234	0	NaN	NaN	0	1	1	0	1	0
2	1	5	52	21429	6581	0.75376402970869094133	0	1	1258.5888819885440171	0	NaN	NaN	0	1	1	0	1	0
2	1	5	53	8543	1492	0.75381032470613718033	0	1	1144.8051600018516183	0	NaN	NaN	0	1	1	0	1	0
2	1	5	54	63429	2196	0.75385662016924470663	0	1	1527.0336479879915714	0	NaN	NaN	0	1	1	0	1	0
2	1	5	55	17769	7998	0.75394919828977435827	0	1	1534.542298992164433	0	NaN	NaN	0	1	1	0	1	0
2	1	5	56	40576	531	0.75399550143629312515	0	1	1144.0317150263581425	0	NaN	NaN	0	1	1	0	1	0
2	1	5	57	54525	6520	0.75404178979806602001	0	1	868.42080901260487735	0	NaN	NaN	0	1	1	0	1	0
2	1	5	58	64532	3898	0.75408809049986302853	0	1	1112.2724169981665909	0	NaN	NaN	0	1	1	0	1	0
2	1	5	59	67244	9743	0.75413437723182141781	0	1	1043.687060009688139	0	NaN	NaN	0	1	1	0	1	0
2	1	5	60	45884	2430	0.75418066990096122026	0	1	1647.3361300013493747	0	NaN	NaN	0	1	1	0	1	0
2	1	5	61	3939	3694	0.75422696559689939022	1	1	804.25078800180926919	0	214	NaN	1	1	0	1	2	0
2	1	5	62	71928	3548	0.75427326001226902008	1	1	1085.2462860057130456	0	103	NaN	1	1	0	1	2	0
2	1	5	63	43136	1939	0.75431955361273139715	0	1	1542.1161580015905201	0	NaN	NaN	0	1	1	0	1	0
2	1	6	1	23874	1129	0.75593549583572894335	0	1	846.7768909758888185	0	NaN	NaN	0	1	1	0	1	0
2	1	6	2	27685	3996	0.75598170037847012281	0	1	1183.2763599813915789	0	NaN	NaN	0	1	1	0	1	0
2	1	6	3	15924	5160	0.75602800049819052219	0	1	1425.981792010134086	0	NaN	NaN	0	1	1	0	1	0
2	1	6	4	39609	2539	0.75607429153751581907	0	1	1607.7397490153089166	0	NaN	NaN	0	1	1	0	1	0
2	1	6	5	23777	5155	0.75612058653496205807	0	1	1529.7788470052182674	0	NaN	NaN	0	1	1	0	1	0
2	1	6	6	11244	3647	0.75616687105502933264	0	1	1259.4145459879655391	0	NaN	NaN	0	1	1	0	1	0
2	1	6	7	40495	7233	0.75621316558681428432	0	1	1683.6440589977428317	0	NaN	NaN	0	1	1	0	1	0
2	1	6	8	27019	5772	0.75625946733634918928	1	1	1737.9808929981663823	0	234	NaN	1	1	0	1	2	0
2	1	6	9	2436	5761	0.75630575628019869328	0	1	1104.4499329873360693	0	NaN	NaN	0	1	1	0	1	0
2	1	6	10	57143	9964	0.75635204801801592112	0	1	1437.1216099825687706	0	NaN	NaN	0	1	1	0	1	0
2	1	6	11	46044	3903	0.75639834732282906771	0	1	702.06181300454773009	0	NaN	NaN	0	1	1	0	1	0
2	1	6	12	38398	9657	0.75644463801290839911	0	1	1180.3458929935004562	0	NaN	NaN	0	1	1	0	1	0
2	1	6	13	29082	1808	0.75653723103459924459	0	1	1502.7649399999063462	0	NaN	NaN	0	1	1	0	1	0
2	1	6	14	51732	3036	0.7565835239365696907	0	1	1343.6659759900067002	0	NaN	NaN	0	1	1	0	1	0
2	1	6	15	62791	9484	0.75662981171626597643	0	1	1104.581658000824973	0	NaN	NaN	0	1	1	0	1	0
2	1	6	16	5667	4025	0.75667611055541783571	1	1	1654.7215809987392277	0	155	156	1	1	0	1	2	0
2	1	6	17	20254	6068	0.75672240694984793663	0	1	1178.7758159916847944	0	NaN	NaN	0	1	1	0	1	0
2	1	6	18	36706	5418	0.75676870241295546293	0	1	1522.616661008214578	0	NaN	NaN	0	1	1	0	1	0
2	1	6	19	72373	4005	0.75681499764323234558	0	1	1346.5105739887803793	0	NaN	NaN	0	1	1	0	1	0
2	1	6	20	37442	9960	0.75686128984671086073	0	1	1361.5728949953336269	0	NaN	NaN	0	1	1	0	1	0
2	1	6	21	9433	6726	0.75690757785923779011	1	1	1352.1379739977419376	0	193	NaN	1	1	0	1	2	0
2	1	6	22	9364	2504	0.75695387995801866055	0	1	1301.1791760218329728	0	NaN	NaN	0	1	1	0	1	0
2	1	6	23	72273	2735	0.75704646448139101267	0	1	1104.3291699897963554	0	NaN	NaN	0	1	1	0	1	0
2	1	6	24	32778	8174	0.75709275994449853897	0	1	1437.6917520130518824	0	NaN	NaN	0	1	1	0	1	0
2	1	6	25	36508	7260	0.75713905494194477797	0	1	1327.6939220086205751	0	NaN	NaN	0	1	1	0	1	0
2	1	6	26	34146	5558	0.75718535156920552254	0	1	955.89831500547006726	0	NaN	NaN	0	1	1	0	1	0
2	1	6	27	52853	7780	0.75723164191003888845	0	1	1203.4630849957466125	0	NaN	NaN	0	1	1	0	1	0
2	1	6	28	12890	1014	0.75727784307673573494	0	1	1145.6578390207141638	0	NaN	NaN	0	1	1	0	1	0
2	1	6	29	3100	3638	0.75732413190416991711	0	1	1591.2804899853654206	0	NaN	NaN	0	1	1	0	1	0
2	1	6	30	59833	6843	0.75737042364198714495	1	1	822.64960100292228162	0	240	NaN	1	1	0	1	2	0
2	1	6	31	64125	9313	0.75741672096773982048	0	0	1212.598092999542132	0	NaN	NaN	0	0	0	1	2	0
2	1	6	32	61808	1702	0.75746300863102078438	0	1	1107.8222520009148866	0	NaN	NaN	0	1	1	0	1	0
2	1	6	33	45596	616	0.75750930455978959799	0	1	1168.5893500107340515	0	NaN	NaN	0	1	1	0	1	0
2	1	6	34	2356	3640	0.75755560328252613544	0	1	1206.1573830142151564	0	NaN	NaN	0	1	1	0	1	0
2	1	6	35	33412	8318	0.75764818629249930382	0	1	1848.1429949752055109	0	NaN	NaN	0	1	1	0	1	0
2	1	6	36	28605	9017	0.75769448757637292147	0	1	1091.0800299898255616	0	NaN	NaN	0	1	1	0	1	0
2	1	6	37	57297	9347	0.75774077430833131075	0	1	1454.0861870045773685	0	NaN	NaN	0	1	1	0	1	0
2	1	6	38	71597	5238	0.75778707605786621571	0	1	1155.6703749811276793	0	NaN	NaN	0	1	1	0	1	0
2	1	6	39	39702	6246	0.75783336837776005268	0	1	1503.4817520063370466	0	NaN	NaN	0	1	1	0	1	0
2	1	6	40	22340	3194	0.75787966081406921148	1	0	1559.3735479924362153	0	158	NaN	1	0	1	0	1	0
2	1	6	41	53053	727	0.7579259498743340373	1	1	921.80117001407779753	0	297	NaN	1	1	0	1	2	0
2	1	6	42	58027	6311	0.75797225302085280418	0	1	1187.8729200107045472	0	NaN	NaN	0	1	1	0	1	0
2	1	6	43	41273	8935	0.75801854615565389395	1	0	1586.8946090049576014	0	189	NaN	1	0	1	0	1	0
2	1	6	44	9918	116	0.75811112986411899328	0	0	1806.5402820066083223	0	NaN	NaN	0	0	0	1	2	0
2	1	6	45	38308	2297	0.75815742870327085257	0	1	1076.6859859868418425	0	NaN	NaN	0	1	1	0	1	0
2	1	6	46	8849	3293	0.75820372370071709156	0	1	1188.2385630160570145	0	NaN	NaN	0	1	1	0	1	0
2	1	6	47	26599	351	0.7582500214921310544	0	1	1874.5919599896296859	0	NaN	NaN	0	1	1	0	1	0
2	1	6	48	50289	2336	0.75829630333464592695	0	1	1423.7710550078190863	0	NaN	NaN	0	1	1	0	1	0
2	1	6	49	21602	265	0.75834260508418083191	1	1	1031.466084998100996	0	96	115	1	1	0	1	2	0
2	1	6	50	68986	9949	0.75838889274746179581	1	1	2369.110355997690931	0	143	NaN	1	1	0	1	2	0
2	1	6	51	36706	5418	0.75843518949113786221	1	1	1053.7395550054498017	0	32	NaN	1	1	0	1	2	0
2	1	6	52	19769	6017	0.75848139403387904167	0	1	1379.9734999774955213	0	NaN	NaN	0	1	1	0	1	0
2	1	6	53	47247	8280	0.75857397739309817553	0	1	1402.6651780004613101	0	NaN	NaN	0	1	1	0	1	0
2	1	6	54	27101	9965	0.75862027460243552923	0	1	1331.1042190180160105	0	NaN	NaN	0	1	1	0	1	0
2	1	6	55	50120	8516	0.75866656610742211342	0	1	1142.8027209767606109	0	NaN	NaN	0	1	1	0	1	0
2	1	6	56	8827	8054	0.75871285691391676664	1	1	817.39028298761695623	0	126	227	1	1	0	1	2	0
2	1	6	57	72375	1266	0.75875915074720978737	1	1	1164.9171020253561437	0	144	237	1	1	0	1	2	0
2	1	6	58	13368	8093	0.75880545203108340502	0	1	2552.6949550257995725	1	NaN	NaN	0	1	1	1	1	0
2	1	6	59	11832	8498	0.75885174691211432219	0	1	1743.0616150086279958	0	NaN	NaN	0	1	1	0	1	0
2	1	6	60	17065	2469	0.75889803969766944647	1	1	2055.9683679894078523	0	127	NaN	1	1	0	1	2	0
2	1	6	61	60306	830	0.75894432584755122662	0	1	1033.2674740056972951	0	NaN	NaN	0	1	1	0	1	0
2	1	6	62	6573	6274	0.75899062585085630417	1	1	1487.883905996568501	0	224	NaN	1	1	0	1	2	0
2	1	7	1	32778	8174	0.76056673598941415548	1	1	1483.4510549844708294	0	38	NaN	1	1	0	1	2	0
2	1	7	2	63385	4615	0.76061303727328777313	0	1	1669.5865649962797761	0	NaN	NaN	0	1	1	0	1	0
2	1	7	3	52028	2736	0.76065931725315749645	0	1	1337.6662950031459332	0	NaN	NaN	0	1	1	0	1	0
2	1	7	4	64046	5200	0.76070561900269240141	1	1	1257.9618320160079747	0	291	NaN	1	1	0	1	2	0
2	1	7	5	334	2330	0.76075190666597336531	0	1	1275.8986350090708584	0	NaN	NaN	0	1	1	0	1	0
2	1	7	6	2790	4470	0.76079821388702839613	0	1	1435.6133310066070408	0	NaN	NaN	0	1	1	0	1	0
2	1	7	7	59796	4068	0.76084450213238596916	1	1	1237.1009989874437451	0	304	NaN	1	1	0	1	2	0
2	1	7	8	30788	5858	0.76089081680402159691	0	1	1306.55995401320979	0	NaN	NaN	0	1	1	0	1	0
2	1	7	9	56366	1538	0.76093708735425025225	1	1	2304.3947510013822466	0	300	NaN	1	1	0	1	2	0
2	1	7	10	40903	6560	0.76102968060877174139	0	1	1110.2858329832088202	0	NaN	NaN	0	1	1	0	1	0
2	1	7	11	30907	8283	0.76107601041439920664	0	1	1472.4366170121356845	0	NaN	NaN	0	1	1	0	1	0
2	1	7	12	15924	5160	0.76112225872930139303	1	1	935.48340300912968814	0	70	NaN	1	1	0	1	2	0
2	1	7	13	8849	3293	0.76116860716138035059	1	1	1016.5816599910613149	0	28	NaN	1	1	0	1	2	0
2	1	7	14	8080	5965	0.7612148551270365715	1	1	1052.9930109914857894	0	218	NaN	1	1	0	1	2	0
2	1	7	15	48935	2408	0.7612611924996599555	0	1	1337.6353649946395308	0	NaN	NaN	0	1	1	0	1	0
2	1	7	16	4988	9667	0.76130743871908634901	1	1	947.94005400035530329	0	214	NaN	1	1	0	1	2	0
2	1	7	17	31820	1866	0.76135378959588706493	1	1	948.00640901667065918	0	222	NaN	1	1	0	1	2	0
2	1	7	18	58051	3342	0.76140002359170466661	0	1	925.19090999849140644	0	NaN	NaN	0	1	1	0	1	0
2	1	7	19	12890	1014	0.76144639181438833475	1	1	1109.8903529928065836	0	52	NaN	1	1	0	1	2	0
2	1	7	20	10691	7951	0.76153898204211145639	0	1	1336.7619509808719158	0	NaN	NaN	0	1	1	0	1	0
2	1	7	21	63107	4784	0.76158520032186061144	0	1	1237.955644988687709	0	NaN	NaN	0	1	1	0	1	0
2	1	7	22	49538	5660	0.76163150731008499861	0	1	1490.3165530122350901	0	NaN	NaN	0	1	1	0	1	0
2	1	7	23	42576	8315	0.76167779974639415741	0	1	1320.4352890024892986	0	NaN	NaN	0	1	1	0	1	0
2	1	7	24	30171	1098	0.76172410428989678621	0	1	1602.0120659959502518	0	NaN	NaN	0	1	1	0	1	0
2	1	7	25	43488	1431	0.76177037798333913088	0	1	1518.8160859979689121	0	NaN	NaN	0	1	1	0	1	0
2	1	7	26	30788	5858	0.76181668729986995459	1	1	1223.0953050020616502	0	17	NaN	1	1	0	1	2	0
2	1	7	27	1564	2848	0.76186297333333641291	0	1	983.74829799286089838	0	NaN	NaN	0	1	1	0	1	0
2	1	7	28	4787	36	0.76190927298739552498	0	1	1233.8401619927026331	0	NaN	NaN	0	1	1	0	1	0
2	1	7	29	62504	6866	0.76195555785670876503	0	1	1550.2947019995190203	0	NaN	NaN	0	1	1	0	1	0
2	1	7	30	30171	1098	0.76200187031645327806	1	1	735.48218401265330613	0	5	NaN	1	1	0	1	2	0
2	1	7	31	42576	8315	0.76204815099481493235	1	1	838.33586401306092739	0	7	NaN	1	1	0	1	2	0
2	1	7	32	1204	5663	0.76209444622509181499	0	1	825.64599299803376198	0	NaN	NaN	0	1	1	0	1	0
2	1	7	33	51843	2218	0.7621407356346026063	0	1	1110.6238179781939834	0	NaN	NaN	0	1	1	0	1	0
2	1	7	34	30788	5858	0.76223332644440233707	1	1	737.41912099649198353	0	7	25	1	1	0	1	2	0
2	1	7	35	58631	9272	0.76227952144108712673	1	1	936.13487097900360823	0	110	NaN	1	1	0	1	2	0
2	1	7	36	16827	8216	0.76232581294607371092	0	1	1360.4229580087121576	0	NaN	NaN	0	1	1	0	1	0
2	1	7	37	17071	7520	0.76237211236730217934	0	1	1365.8655619947239757	0	NaN	NaN	0	1	1	0	1	0
2	1	7	38	18306	5919	0.76241840515285730362	0	1	1352.7763989986851811	0	NaN	NaN	0	1	1	0	1	0
2	1	7	39	58514	2451	0.76246469467878341675	0	1	1302.6129560021217912	0	NaN	NaN	0	1	1	0	1	0
2	1	7	40	52018	9575	0.76251099433284252882	0	0	1274.1335679893381894	0	NaN	NaN	0	0	0	1	2	0
2	1	7	41	334	2330	0.76255729002878069878	1	1	1036.9163219875190407	0	35	NaN	1	1	0	1	2	0
2	1	7	42	29782	7310	0.76260358397848904133	0	1	1069.9436489958316088	0	NaN	NaN	0	1	1	0	1	0
2	1	7	43	47308	8175	0.76264987175818532705	0	1	1221.8121660116594285	0	NaN	NaN	0	1	1	0	1	0
2	1	7	44	4355	2259	0.76269617665093392134	1	1	1847.576325002592057	0	274	NaN	1	1	0	1	2	0
2	1	7	45	69452	4401	0.76274245779495686293	1	1	850.37723899586126208	0	147	NaN	1	1	0	1	2	0
2	1	7	46	37094	3902	0.76283504848834127188	1	0	1079.9353650072589517	0	396	NaN	1	0	1	0	1	0
2	1	7	47	62644	9335	0.76288134895730763674	0	1	1006.6124099830631167	0	NaN	NaN	0	1	1	0	1	0
2	1	7	48	43468	2760	0.76292763801757246256	0	1	1214.944041013950482	0	NaN	NaN	0	1	1	0	1	0
2	1	7	49	19769	6017	0.76297393674030900002	1	1	1247.3863099876325577	0	58	NaN	1	1	0	1	2	0
2	1	7	50	1012	8170	0.7630202234722673893	0	1	1381.1446649779099971	0	NaN	NaN	0	1	1	0	1	0
2	1	7	51	2062	5262	0.76306651975028216839	0	1	1409.5830680162180215	0	NaN	NaN	0	1	1	0	1	0
2	1	7	52	2062	5262	0.7631128174252808094	1	1	714.07010199618525803	0	0	NaN	1	1	0	1	2	0
2	1	7	53	50289	2336	0.76315911696292459965	1	1	841.49123000679537654	0	66	NaN	1	1	0	1	2	0
2	1	7	54	63347	3862	0.76320540264714509249	0	1	1331.2343299912754446	0	NaN	NaN	0	1	1	0	1	0
2	1	7	55	39711	8482	0.76329799264203757048	0	0	1092.8643440129235387	0	NaN	NaN	0	0	0	1	2	0
2	1	7	56	697	9525	0.76334428903646767139	0	1	987.64588899211958051	0	NaN	NaN	0	1	2	0	1	0
2	1	7	57	30823	3450	0.76339058473240584135	0	1	1317.2803990019019693	0	NaN	NaN	0	1	1	0	1	0
2	1	7	58	60333	6692	0.76343687856569886208	1	1	1273.2644850038923323	0	254	NaN	1	1	0	1	2	0
2	1	7	59	19182	230	0.76348317216616123915	0	1	1578.1556099827867001	0	NaN	NaN	0	1	1	0	1	0
2	1	7	60	30403	5967	0.763529363670386374	0	1	1453.4781360125634819	0	NaN	NaN	0	1	1	0	1	0
2	1	7	61	22273	7856	0.76357566844671964645	0	1	1003.220372018404305	0	NaN	NaN	0	1	1	0	1	0
2	1	7	62	12025	8586	0.76362195983529090881	0	0	1643.3909090119414032	0	NaN	NaN	0	0	0	1	2	0
2	1	7	63	36246	7130	0.76366824680007994175	1	1	920.02069298177957535	0	160	NaN	1	1	0	1	2	0
2	1	8	1	48562	8109	0.76519296551123261452	0	1	1136.5048789884895086	0	NaN	NaN	0	1	1	0	1	0
2	1	8	2	6559	66	0.7652393244206905365	1	1	1234.1488359961658716	0	171	NaN	1	1	0	1	2	0
2	1	8	3	72081	992	0.76528555515687912703	0	1	1062.2555630106944591	0	NaN	NaN	0	1	1	0	1	0
2	1	8	4	47706	2986	0.76533192011993378401	0	1	1506.3678210135549307	0	NaN	NaN	0	1	1	0	1	0
2	1	8	5	37740	1192	0.76537813711911439896	0	1	1411.4630549738649279	0	NaN	NaN	0	1	1	0	1	0
2	1	8	6	7122	5568	0.76542451907880604267	0	1	1382.5550320034381002	0	NaN	NaN	0	1	1	0	1	0
2	1	8	7	46392	2203	0.76547072443645447493	0	1	1238.6942730227019638	0	NaN	NaN	0	1	1	0	1	0
2	1	8	8	51525	7185	0.76551711233332753181	1	1	1295.1939610065892339	0	144	NaN	1	1	0	1	2	0
2	1	8	9	56782	4001	0.76556331210304051638	0	1	1206.3588809978682548	0	NaN	NaN	0	1	1	0	1	0
2	1	8	10	33116	4285	0.76565590547397732735	1	1	2790.2033360151108354	0	261	NaN	1	1	0	1	2	0
2	1	8	11	36068	475	0.76570230850484222174	0	1	1335.9777729783672839	0	NaN	NaN	0	1	1	0	1	0
2	1	8	12	30533	7336	0.76574849744793027639	1	1	1090.0570510129909962	0	323	NaN	1	1	0	1	2	0
2	1	8	13	64102	1800	0.76579489011783152819	0	1	840.94120198278687894	0	NaN	NaN	0	1	1	0	1	0
2	1	8	14	33457	9121	0.76584108220413327217	1	1	821.93642100901342928	0	239	NaN	1	1	0	1	2	0
2	1	8	15	65028	7428	0.76588748849462717772	0	1	935.54821200086735189	0	NaN	NaN	0	1	1	0	1	0
2	1	8	16	1204	5663	0.7659335768548771739	1	1	1217.1349469863343984	0	46	NaN	1	1	0	1	2	0
2	1	8	17	65459	6579	0.76597987744025886059	0	1	1068.7105009856168181	0	NaN	NaN	0	1	1	0	1	0
2	1	8	18	38662	7917	0.7660261630080640316	0	1	1739.3860090232919902	0	NaN	NaN	0	1	1	0	1	0
2	1	8	19	3218	3756	0.76607245090417563915	1	1	1218.2247450109571218	0	219	NaN	1	1	0	1	2	0
2	1	8	20	56852	6106	0.76616504823323339224	1	1	878.12866299645975232	0	187	NaN	1	1	0	1	2	0
2	1	8	21	19324	2186	0.76621133193839341402	0	1	1391.8314119800925255	0	NaN	NaN	0	1	1	0	1	0
2	1	8	22	63385	4615	0.7662576290313154459	1	1	950.31225500861182809	0	82	NaN	1	1	0	1	2	0
2	1	8	23	14245	4306	0.7663039288017898798	0	1	1423.0726040259469301	0	NaN	NaN	0	1	1	0	1	0
2	1	8	24	8762	5523	0.76635021658148616552	0	1	944.00820700684562325	0	NaN	NaN	0	1	1	0	1	0
2	1	8	25	24928	7974	0.76639651751611381769	1	1	1134.3797419976908714	0	205	NaN	1	1	0	1	2	0
2	1	8	26	5149	1196	0.76644280250184237957	0	1	1116.7232730076648295	0	NaN	NaN	0	1	1	0	1	0
2	1	8	27	70801	9718	0.76648909889627248049	1	1	1584.3767620099242777	0	317	NaN	1	1	0	1	2	0
2	1	8	28	58219	9244	0.76653540064580738544	0	1	1089.6566289884503931	0	NaN	NaN	0	1	1	0	1	0
2	1	8	29	47454	2604	0.76658168807625770569	0	1	866.64432997349649668	0	NaN	NaN	0	1	1	0	1	0
2	1	8	30	38180	4793	0.76662798970937728882	0	1	1855.4830320063047111	0	NaN	NaN	0	1	1	0	1	0
2	1	8	31	71754	988	0.76672058075200766325	0	1	1423.8675920059904456	0	NaN	NaN	0	1	1	0	1	0
2	1	8	32	61295	5894	0.76676686818245798349	0	1	1166.7454530252143741	0	NaN	NaN	0	1	1	0	1	0
2	1	8	33	40793	1732	0.76681316038593649864	0	1	1210.3509189910255373	0	NaN	NaN	0	1	1	0	1	0
2	1	8	34	34743	6066	0.76685945724602788687	0	1	1717.370918020606041	0	NaN	NaN	0	1	1	0	1	0
2	1	8	35	52333	7020	0.766905752825550735	0	1	1442.7076069987379014	0	NaN	NaN	0	1	1	0	1	0
2	1	8	36	49884	9798	0.76695204572752118111	0	1	1366.8800349987577647	0	NaN	NaN	0	1	1	0	1	0
2	1	8	37	7375	1771	0.76699834270402789116	0	1	1346.5366519812960178	0	NaN	NaN	0	1	1	0	1	0
2	1	8	38	59496	5382	0.7670446296688169241	0	1	1443.5858649958390743	0	NaN	NaN	0	1	1	0	1	0
2	1	8	39	67787	8917	0.7670909281587228179	0	1	1333.4073639998678118	0	NaN	NaN	0	1	1	0	1	0
2	1	8	40	58027	6311	0.76713722210843116045	1	1	946.70543301617726684	0	122	NaN	1	1	0	1	2	0
2	1	8	41	34931	5514	0.76718351943418383598	0	1	1136.9181839982047677	0	NaN	NaN	0	1	1	0	1	0
2	1	8	42	7378	3924	0.76727600651793181896	0	1	1846.6573590121697634	0	NaN	NaN	0	1	1	0	1	0
2	1	8	43	47454	2604	0.76732230093330144882	1	1	817.7559920004568994	0	13	NaN	1	1	0	1	2	0
2	1	8	44	37740	1192	0.76736859278753399849	1	1	867.13090198463760316	0	38	NaN	1	1	0	1	2	0
2	1	8	45	71011	2755	0.76741489139385521412	0	1	1085.2758200198877603	0	NaN	NaN	0	1	1	0	1	0
2	1	8	46	58210	9761	0.76746118534356355667	0	0	1590.9255000005941838	0	NaN	NaN	0	0	0	1	2	0
2	1	8	47	26231	1968	0.76750748290214687586	0	1	1566.4500980055890977	0	NaN	NaN	0	1	1	0	1	0
2	1	8	48	24485	7559	0.76755377359222620726	1	1	903.67579500889405608	0	268	NaN	1	1	0	1	2	0
2	1	8	49	56561	1551	0.76760006055701524019	0	1	1356.312830001115799	0	NaN	NaN	0	1	1	0	1	0
2	1	8	50	34456	6666	0.76764635718427598476	1	1	1161.6163190046790987	0	336	NaN	1	1	0	1	2	0
2	1	8	51	1012	8170	0.76769265369512140751	1	1	1132.982326002093032	0	63	NaN	1	1	0	1	2	0
2	1	8	52	3218	3756	0.76773894531652331352	1	1	960.89334800490178168	0	32	252	1	1	0	1	2	0
2	1	8	53	26499	2262	0.76778524811379611492	0	1	848.53558702161535621	0	NaN	NaN	0	1	1	0	1	0
2	1	8	54	63107	4784	0.76783154334407299757	1	1	1068.0997319868765771	0	95	NaN	1	1	0	1	2	0
2	1	8	55	71528	5714	0.76792412775103002787	1	1	2226.4252849854528904	0	198	NaN	1	1	0	1	2	0
2	1	8	56	47020	1108	0.7679704147158190608	1	1	884.10084901261143386	0	279	389	1	1	0	2	2	0
2	1	8	57	38118	1224	0.7680167054058983922	0	1	1844.5904700201936066	0	NaN	NaN	0	1	1	0	1	0
2	1	8	58	14012	9934	0.76806300412863492966	0	1	1149.3831400002818555	0	NaN	NaN	0	1	1	0	1	0
2	1	8	59	65235	1317	0.7681093036662787199	0	1	1141.2791280017700046	0	NaN	NaN	0	1	1	0	1	0
2	1	8	60	58145	805	0.76815560029353946447	0	1	956.55300299404188991	0	NaN	NaN	0	1	1	0	1	0
2	1	8	61	59916	5274	0.76820188539568334818	0	1	1322.3418220004532486	0	NaN	NaN	0	1	1	0	1	0
2	1	8	62	72265	5350	0.76824818667955696583	0	1	1188.8833229895681143	0	NaN	NaN	0	1	1	0	1	0
2	1	9	1	26499	2262	0.77090473298449069262	1	1	1283.961831999476999	0	9	NaN	1	1	0	1	2	0
2	1	9	2	39702	6246	0.77095104544423520565	1	1	1083.6012540094088763	0	149	NaN	1	1	0	1	2	0
2	1	9	3	58631	9272	0.7709973199525848031	1	1	809.37395701766945422	0	92	203	1	1	0	1	2	0
2	1	9	4	37674	4741	0.77104363637045025826	1	1	839.3964800052344799	0	242	NaN	1	1	0	1	2	0
2	1	9	5	11943	145	0.77108991192653775215	0	1	1334.250301995780319	0	NaN	NaN	0	1	1	0	1	0
2	1	9	6	63561	6367	0.77113622042816132307	0	1	1501.3311569928191602	0	NaN	NaN	0	1	1	0	1	0
2	1	9	7	71928	3548	0.77118250553030520678	1	1	916.30984199582599103	0	194	298	1	1	0	1	2	0
2	1	9	8	30407	2752	0.77122880925890058279	0	1	1786.6620809945743531	0	NaN	NaN	0	1	1	0	1	0
2	1	9	9	19182	230	0.77127509238198399544	1	1	1366.8669920007232577	0	74	NaN	1	1	0	1	2	0
2	1	9	10	49544	9922	0.77132138842716813087	0	1	1917.1289690129924566	0	NaN	NaN	0	1	1	0	1	0
2	1	9	11	1968	5889	0.77136768342461436987	0	1	1213.5904149909038097	0	NaN	NaN	0	1	1	0	1	0
2	1	9	12	24161	2377	0.77141398179810494184	0	1	1735.9308940067421645	0	NaN	NaN	0	1	1	0	1	0
2	1	9	13	8543	1492	0.77146026038099080324	1	1	1084.137238998664543	0	209	NaN	1	1	0	1	2	0
2	1	9	14	22340	3194	0.77155285957269370556	1	1	1190.0920969783328474	0	160	319	1	1	0	1	2	0
2	1	9	15	35562	1899	0.77159916376695036888	0	1	1450.7285449944902211	0	NaN	NaN	0	1	1	0	1	0
2	1	9	16	31054	9049	0.77164544013794511557	0	1	873.38655898929573596	0	NaN	NaN	0	1	1	0	1	0
2	1	9	17	16931	5081	0.77169174363370984793	1	1	1241.4917320129461586	0	256	NaN	1	1	0	1	2	0
2	1	9	18	32778	8174	0.77173803187906742096	1	1	817.74625799153000116	0	141	180	1	1	0	1	2	0
2	1	9	19	62800	1624	0.77178432804066687822	0	1	1237.5168899889104068	0	NaN	NaN	0	1	1	0	1	0
2	1	9	20	38818	511	0.77183062082622200251	0	0	1282.4902969878166914	0	NaN	NaN	0	0	0	1	2	0
2	1	9	21	41713	4420	0.77187692606821656227	0	1	1987.2607440047431737	0	NaN	NaN	0	1	1	0	1	0
2	1	9	22	2973	5745	0.77192320849280804396	0	1	1237.7394019858911633	0	NaN	NaN	0	1	1	0	1	0
2	1	9	23	31110	3492	0.77196951583027839661	0	1	1200.6824629788752645	0	NaN	NaN	0	1	1	0	1	0
2	1	9	24	66490	919	0.77201579080428928137	0	1	1226.6988069750368595	0	NaN	NaN	0	1	1	0	1	0
2	1	9	25	44275	5733	0.77210838161408901215	0	1	1102.9462619917467237	0	NaN	NaN	0	1	1	0	1	0
2	1	9	26	66675	8542	0.77215467288624495268	0	1	1262.607898999704048	0	NaN	NaN	0	1	1	0	1	0
2	1	9	27	61442	2220	0.77220097021199762821	0	1	1426.0041610104963183	0	NaN	NaN	0	1	1	0	1	0
2	1	9	28	71233	984	0.77224727126304060221	0	1	2002.3526100267190486	0	NaN	NaN	0	1	1	0	1	0
2	1	9	29	18351	7057	0.77229356695897877216	0	1	1467.9159049992449582	0	NaN	NaN	0	1	1	0	1	0
2	1	9	30	1262	5896	0.77233975287526845932	0	1	1288.0243659892585129	0	NaN	NaN	0	1	1	0	1	0
2	1	9	31	42681	7390	0.77238604729063808918	0	1	1314.7282139980234206	0	NaN	NaN	0	1	1	0	1	0
2	1	9	32	14880	5139	0.7724323514848947525	0	1	1168.6845450021792203	0	NaN	NaN	0	1	1	0	1	0
2	1	9	33	5189	2320	0.7724786361213773489	0	1	1745.3498310060240328	0	NaN	NaN	0	1	1	0	1	0
2	1	9	34	47250	6169	0.77252493530977517366	0	1	1416.3074480020441115	0	NaN	NaN	0	1	1	0	1	0
2	1	9	35	19692	4523	0.77257123414892703295	1	0	1340.1225470006465912	0	522	NaN	1	0	1	0	1	0
2	1	9	36	50169	7240	0.77266382041852921247	0	1	1448.5493579995818436	0	NaN	NaN	0	1	1	0	1	0
2	1	9	37	25297	6069	0.77271011227276176214	0	1	1190.7825290109030902	0	NaN	NaN	0	1	1	0	1	0
2	1	9	38	46162	6817	0.77275640948209911585	0	1	1051.0295389976818115	0	NaN	NaN	0	1	1	0	1	0
2	1	9	39	5189	2320	0.77280269423499703407	1	1	938.56732401764020324	0	5	NaN	1	1	0	1	2	0
2	1	9	40	23658	3951	0.77284899808000773191	1	1	1027.0212329924106598	0	291	NaN	1	1	0	1	2	0
2	1	9	41	45058	7568	0.77289529156405478716	0	0	2044.5895410084631294	0	NaN	NaN	0	0	0	1	2	0
2	1	9	42	30655	7447	0.77294158388394862413	0	1	1203.044666995992884	0	NaN	NaN	0	1	1	0	1	0
2	1	9	43	51822	6540	0.77298787422478199005	0	1	1361.7377560003660619	0	NaN	NaN	0	1	1	0	1	0
2	1	9	44	9430	2255	0.77303417259827256203	0	1	1446.5332050167489797	0	NaN	NaN	0	1	1	0	1	0
2	1	9	45	67539	9088	0.77312675165012478828	0	1	1609.5694179821293801	0	NaN	NaN	0	1	1	0	1	0
2	1	9	46	18677	9124	0.7731730540981516242	0	1	1264.9412969767581671	0	NaN	NaN	0	1	1	0	1	0
2	1	9	47	8849	3293	0.77321935305371880531	1	1	768.224954983452335	0	158	187	1	1	0	1	2	0
2	1	9	48	2339	2821	0.77326564304530620575	0	1	2017.0591810019686818	0	NaN	NaN	0	1	1	0	1	0
2	1	9	49	13587	4095	0.77331194141879677773	0	1	1010.4575960140209645	0	NaN	NaN	0	1	1	0	1	0
2	1	9	50	63243	4751	0.77335822395980358124	1	1	1356.8140479910653085	0	328	NaN	1	1	0	1	2	0
2	1	9	51	71011	2755	0.77340452570933848619	1	1	1102.3218170157633722	0	67	NaN	1	1	0	1	2	0
2	1	9	52	61905	7655	0.77345081628300249577	0	1	1471.7662780021782964	0	NaN	NaN	0	1	1	0	1	0
2	1	9	53	23096	3807	0.77349711640272289515	0	1	1863.0680239875800908	0	NaN	NaN	0	1	1	0	1	0
2	1	9	54	51302	3457	0.77354341186583042145	1	1	1155.6669530109502375	0	267	353	1	1	0	1	2	0
2	1	9	55	48562	8109	0.77363599883392453194	1	1	1068.8673859986010939	0	115	NaN	1	1	0	1	2	0
2	1	9	56	72664	6054	0.77368219452910125256	0	1	1160.8357279910705984	0	NaN	NaN	0	1	1	0	1	0
2	1	9	57	29504	9508	0.77372848289087414742	0	1	1231.1473900044802576	0	NaN	NaN	0	1	1	0	1	0
2	1	9	58	48411	3768	0.77377477684058248997	0	1	1216.2043309945147485	0	NaN	NaN	0	1	1	0	1	0
2	1	9	59	7455	6410	0.77382107730954885483	0	0	1630.3802809852641076	0	NaN	NaN	0	0	0	1	2	0
2	1	9	60	11482	2328	0.77386736229527741671	0	1	974.65925398864783347	0	NaN	NaN	0	1	1	0	1	0
2	1	9	61	23096	3807	0.77391366660594940186	1	1	848.18226902280002832	0	7	NaN	1	1	0	1	2	0
2	1	9	62	45158	7697	0.77395995636470615864	0	1	1201.975010015303269	0	NaN	NaN	0	1	1	0	1	0
2	1	9	63	23580	8816	0.7740062555531039834	0	1	1216.1977890064008534	0	NaN	NaN	0	1	1	0	1	0
2	1	10	1	53955	3444	0.77561003970913589001	1	1	1171.1932199832517654	0	314	482	1	1	0	1	2	0
2	1	10	2	21419	7744	0.77565633843187242746	0	1	1602.8295750147663057	0	NaN	NaN	0	1	1	0	1	0
2	1	10	3	56852	6106	0.77570263249799609184	1	1	835.61269601341336966	0	107	295	1	1	0	1	2	0
2	1	10	4	35294	1126	0.77574893925338983536	0	1	1457.2920420032460243	0	NaN	NaN	0	1	1	0	1	0
2	1	10	5	37478	7339	0.77579521504230797291	0	1	1874.2594579816795886	0	NaN	NaN	0	1	1	0	1	0
2	1	10	6	68959	2913	0.77584151970222592354	0	1	1112.4146420042961836	0	NaN	NaN	0	1	1	0	1	0
2	1	10	7	62977	7572	0.77588780608493834734	0	1	1025.0092019850853831	0	NaN	NaN	0	1	1	0	1	0
2	1	10	8	50120	8516	0.77593411249108612537	1	1	1683.0805079953279346	0	202	NaN	1	1	0	1	2	0
2	1	10	9	2530	6139	0.77598040050361305475	0	1	1677.8522869863081723	0	NaN	NaN	0	1	1	0	1	0
2	1	10	10	37295	9261	0.77607298549264669418	0	1	979.39720598515123129	0	NaN	NaN	0	1	1	0	1	0
2	1	10	11	42576	8315	0.77611918561160564423	1	1	842.28698900551535189	0	167	175	1	1	0	1	2	0
2	1	10	12	3627	14	0.77616547548677772284	0	1	978.87052298756316304	0	NaN	NaN	0	1	1	0	1	0
2	1	10	13	49538	5660	0.77621177304536104202	1	1	1424.9588339880574495	0	178	NaN	1	1	0	1	2	0
2	1	10	14	60333	6692	0.77625805919524282217	1	1	733.88685999088920653	0	143	398	1	1	0	1	2	0
2	1	10	15	44611	4211	0.77630435663741081953	0	1	1024.621085001854226	0	NaN	NaN	0	1	1	0	1	0
2	1	10	16	56971	9571	0.77635065012145787477	0	1	1977.1848070085979998	0	NaN	NaN	0	1	1	0	1	0
2	1	10	17	50967	9570	0.77639694476965814829	0	1	1213.1087930174544454	0	NaN	NaN	0	1	1	0	1	0
2	1	10	18	66705	4400	0.77644324232824146748	0	0	1820.8766629977617413	0	NaN	NaN	0	0	0	1	2	0
2	1	10	19	12471	8200	0.77648953383322805166	0	1	920.12075899401679635	0	NaN	NaN	0	1	1	0	1	0
2	1	10	20	6605	5345	0.77653582347556948662	0	1	1034.5177029957994819	0	NaN	NaN	0	1	1	0	1	0
2	1	10	21	47183	4585	0.77662841591518372297	0	0	1763.3524169796146452	0	NaN	NaN	0	0	0	1	2	0
2	1	10	22	16931	5081	0.77667471289169043303	1	1	744.71459098276682198	0	67	324	1	1	0	1	2	0
2	1	10	23	53313	7247	0.77672100870404392481	0	0	1801.3570360199082643	0	NaN	NaN	0	0	0	1	2	0
2	1	10	24	30622	5960	0.77676729299128055573	0	1	1519.7649479960091412	0	NaN	NaN	0	1	1	0	1	0
2	1	10	25	59833	6843	0.77681359276175498962	1	1	810.80236300476826727	0	244	485	1	1	0	1	2	0
2	1	10	26	44120	2726	0.77685988415032625198	0	1	1006.1428119952324778	0	NaN	NaN	0	1	1	0	1	0
2	1	10	27	33116	4285	0.77690618368797004223	1	1	1327.6078359922394156	0	141	403	1	1	0	1	2	0
2	1	10	28	7169	7449	0.77695247647352516651	0	1	1970.5857360095251352	0	NaN	NaN	0	1	1	0	1	0
2	1	10	29	27246	3909	0.77699876728001981974	0	1	1558.8492859969846904	0	NaN	NaN	0	1	1	0	1	0
2	1	10	30	537	6194	0.77709135436452925205	0	0	1540.3368299885187298	0	NaN	NaN	0	0	0	1	2	0
2	1	10	31	72624	3376	0.77713764552026987076	1	1	716.5248759847600013	0	484	NaN	1	1	0	1	2	0
2	1	10	32	8067	3500	0.77718394796829670668	0	1	1316.8651869927998632	0	NaN	NaN	0	1	1	0	1	0
2	1	10	33	55364	6752	0.7772302418015897274	0	1	1074.6363329817540944	0	NaN	NaN	0	1	1	0	1	0
2	1	10	34	9666	4739	0.77727653714828193188	0	1	1276.0912529774941504	0	NaN	NaN	0	1	1	0	1	0
2	1	10	35	16342	3456	0.77732283459044992924	0	1	1060.3036200045607984	0	NaN	NaN	0	1	1	0	1	0
2	1	10	36	19182	230	0.77736902027390897274	1	1	686.89370498759672046	0	89	164	1	1	0	1	2	0
2	1	10	37	45596	616	0.77741532633081078529	1	1	857.3165329871699214	0	253	NaN	1	1	0	1	2	0
2	1	10	38	14529	173	0.77746161120012402534	0	1	1130.3838260064367205	0	NaN	NaN	0	1	1	0	1	0
2	1	10	39	70243	2163	0.77750790794380009174	0	1	1502.7528119971975684	0	NaN	NaN	0	1	1	0	1	0
2	1	10	40	51435	9008	0.77760050271172076464	0	1	1642.3379250045400113	1	NaN	NaN	0	1	1	1	1	0
2	1	10	41	18481	4465	0.77764678467065095901	0	1	1903.8298719970043749	0	NaN	NaN	0	1	1	0	1	0
2	1	10	42	23810	7198	0.77769307943526655436	0	1	1869.4695690064691007	0	NaN	NaN	0	1	1	0	1	0
2	1	10	43	67732	5817	0.77773937862366437912	0	1	1131.4488819916732609	0	NaN	NaN	0	1	1	0	1	0
2	1	10	44	21570	6148	0.7777856787433847785	0	1	1314.2066110158339143	0	NaN	NaN	0	1	1	0	1	0
2	1	10	45	41938	4356	0.77783196850214153528	0	1	1270.3803300100844353	0	NaN	NaN	0	1	1	0	1	0
2	1	10	46	39603	4186	0.77787826198618859053	1	1	1003.5403770161792636	0	494	NaN	1	1	0	1	2	0
2	1	10	47	13145	1703	0.77792455605231225491	1	0	1235.105644998839125	0	570	NaN	1	0	1	0	1	0
2	1	10	48	42230	9294	0.7779708527959883213	0	1	2285.6279210245702416	1	NaN	NaN	0	1	1	1	1	0
2	1	10	49	58027	6311	0.77801713754888623953	1	1	826.11628100858069956	0	133	256	1	1	0	1	2	0
2	1	10	50	36675	9492	0.77806344104465097189	0	1	1920.3918029961641878	0	NaN	NaN	0	1	1	0	1	0
2	1	10	51	17574	8688	0.77810973406303673983	0	1	2446.9424459966830909	0	NaN	NaN	0	1	1	0	1	0
2	1	10	52	12258	3319	0.7782023231266066432	0	1	914.32438301853835583	0	NaN	NaN	0	1	1	0	1	0
2	1	10	53	41819	1769	0.77824861090630292892	0	1	958.18306200089864433	0	NaN	NaN	0	1	1	0	1	0
2	1	10	54	5414	8140	0.77829490858130156994	0	1	1002.7538370050024241	0	NaN	NaN	0	1	1	0	1	0
2	1	10	55	7157	7561	0.77834120532497763634	0	1	1178.9834260125644505	0	NaN	NaN	0	1	1	0	1	0
2	1	10	56	17846	2304	0.7783874954329803586	0	0	2183.8248720159754157	1	NaN	NaN	0	0	1	2	2	0
2	1	10	57	41171	2481	0.77843379380647093058	0	0	1207.8875169972889125	0	NaN	NaN	0	0	0	1	2	0
2	1	10	58	23291	2880	0.77848008484579622746	1	1	1682.0212409947998822	0	402	NaN	1	1	0	1	2	0
2	1	10	59	19324	2186	0.77852638124022632837	1	1	709.13403699523769319	0	162	NaN	1	1	0	1	2	0
2	1	10	60	46388	2935	0.77857257938012480736	0	1	703.45381501829251647	0	NaN	NaN	0	1	1	0	1	0
2	1	10	61	22005	5193	0.77861886541359126568	0	1	1079.1118369961623102	0	NaN	NaN	0	1	1	0	1	0
2	1	10	62	9918	116	0.77866516204085201025	1	1	1003.1115580059122294	0	267	NaN	1	1	0	1	2	0
2	1	11	1	52162	9647	0.78032817679923027754	0	1	917.64715799945406616	0	NaN	NaN	0	1	1	0	1	0
2	1	11	2	17029	1791	0.7803744846023619175	0	1	1201.635990000795573	0	NaN	NaN	0	1	1	0	1	0
2	1	11	3	2492	1407	0.78042076306883245707	0	1	1877.0131219935137779	0	NaN	NaN	0	1	1	0	1	0
2	1	11	4	56043	770	0.78046706202439963818	0	1	1524.014908995013684	0	NaN	NaN	0	1	1	0	1	0
2	1	11	5	32777	2830	0.78051334572955965996	0	1	1363.6850650073029101	0	NaN	NaN	0	1	1	0	1	0
2	1	11	6	35794	2129	0.78055965586099773645	0	1	1370.7696399942506105	0	NaN	NaN	0	1	1	0	1	0
2	1	11	7	43968	2579	0.78060594573616981506	0	1	953.10181399690918624	0	NaN	NaN	0	1	1	0	1	0
2	1	11	8	49483	3014	0.78065224341116845608	1	1	818.88102798257023096	0	444	540	1	1	0	1	2	0
2	1	11	9	34239	459	0.7806985233910381794	0	0	1303.8612059899605811	0	NaN	NaN	0	0	0	1	2	0
2	1	11	10	48464	2642	0.78074482548981904984	0	1	1320.338691002689302	0	NaN	NaN	0	1	1	0	1	0
2	1	11	11	4426	8996	0.78079111874103546143	0	1	2102.5147490145172924	0	NaN	NaN	0	1	1	0	1	0
2	1	11	12	2973	5745	0.78083742491435259581	1	1	1122.7805070229806006	0	114	NaN	1	1	0	1	2	0
2	1	11	13	48403	3410	0.78093000559601932764	0	0	1602.6762649999000132	0	NaN	NaN	0	0	0	1	2	0
2	1	11	14	34041	8116	0.78097629360854625702	0	1	1076.855179009726271	0	NaN	NaN	0	1	1	0	1	0
2	1	11	15	44275	5733	0.78102259081788361073	1	1	1702.872819994809106	0	114	NaN	1	1	0	1	2	0
2	1	11	16	23658	3951	0.78106888371985405684	1	1	765.06480199168436229	0	100	392	1	1	0	1	2	0
2	1	11	17	51649	1482	0.78111508034635335207	0	1	1169.4648780103307217	0	NaN	NaN	0	1	1	0	1	0
2	1	11	18	36169	4599	0.7811613685917109251	0	1	1114.6691239846404642	0	NaN	NaN	0	1	1	0	1	0
2	1	11	19	60141	4040	0.78120765916537493467	0	1	1682.4057909834664315	0	NaN	NaN	0	1	1	0	1	0
2	1	11	20	54645	4982	0.78125395579263567924	0	0	2054.5389380131382495	0	NaN	NaN	0	0	0	1	2	0
2	1	11	21	35039	8474	0.78130025055725127459	0	1	963.85603200178593397	0	NaN	NaN	0	1	1	0	1	0
2	1	11	22	38398	9657	0.78134655090980231762	1	1	945.92068300698883832	0	321	NaN	1	1	0	1	2	0
2	1	11	23	28338	6168	0.78143913461826741695	0	1	1136.015013005817309	0	NaN	NaN	0	1	1	0	1	0
2	1	11	24	29277	6537	0.78148543485440313816	0	0	1612.3089190223254263	0	NaN	NaN	0	0	0	1	2	0
2	1	11	25	67254	4759	0.78153173206374049187	0	1	1463.6637090006843209	0	NaN	NaN	0	1	1	0	1	0
2	1	11	26	34931	5514	0.78157801332417875528	1	1	1089.7589219966903329	0	171	NaN	1	1	0	1	2	0
2	1	11	27	16669	4620	0.78162431390956044197	0	1	1013.6651760258246213	0	NaN	NaN	0	1	1	0	1	0
2	1	11	28	31273	7333	0.78167060983832925558	0	0	1809.5872520061675459	0	NaN	NaN	0	0	0	1	2	0
2	1	11	29	12000	1069	0.78171690343879163265	0	0	1753.2431829895358533	0	NaN	NaN	0	0	0	1	2	0
2	1	11	30	48250	1218	0.7817631895886734128	0	1	725.15218699118122458	0	NaN	NaN	0	1	1	0	1	0
2	1	11	31	37085	1512	0.78180949168745428324	0	0	1582.208807987626642	0	NaN	NaN	0	0	0	2	2	0
2	1	11	32	36169	4599	0.78185578668490052223	1	1	1002.7144679916091263	0	13	NaN	1	1	0	1	2	0
2	1	11	33	53321	1040	0.78190207818988710642	0	1	1025.9556800010614097	0	NaN	NaN	0	1	1	0	1	0
2	1	11	34	62800	1624	0.78194836911279708147	1	1	1349.768740008585155	0	139	NaN	1	1	0	1	2	0
2	1	11	35	29082	1808	0.78204096376430243254	1	1	1746.8856970081105828	0	333	NaN	1	1	0	1	2	0
2	1	11	36	431	4690	0.78208725480362772942	0	1	1005.5058330181054771	0	NaN	NaN	0	1	1	0	1	0
2	1	11	37	43244	5019	0.78213354339823126793	0	1	1039.3926190154161304	0	NaN	NaN	0	1	1	0	1	0
2	1	11	38	24570	5219	0.78217984095681458712	0	1	1009.4696999876759946	0	NaN	NaN	0	1	1	0	1	0
2	1	11	39	19115	9102	0.78222613630350679159	0	1	929.12596100359223783	0	NaN	NaN	0	1	1	0	1	0
2	1	11	40	28904	9621	0.7822724304860457778	1	1	830.0509749969933182	0	547	NaN	1	1	0	1	2	0
2	1	11	41	72870	5874	0.78231872257310897112	0	1	1044.5350560185033828	0	NaN	NaN	0	1	1	0	1	0
2	1	11	42	14122	169	0.78236492280848324299	0	1	3111.5073710097931325	1	NaN	NaN	0	1	1	1	1	0
2	1	11	43	67539	9088	0.78241121466271579266	1	1	1103.6447329970542341	0	122	NaN	1	1	0	1	2	0
2	1	11	44	8337	4637	0.78250380302779376507	0	1	1016.4102480048313737	0	NaN	NaN	0	1	1	0	1	0
2	1	11	45	61824	4522	0.78255010140128433704	0	1	1271.8072309799026698	0	NaN	NaN	0	1	1	0	1	0
2	1	11	46	17255	7224	0.78259639604948461056	0	0	1140.0558150198776275	0	NaN	NaN	0	0	0	1	2	0
2	1	11	47	20005	3822	0.78264268301427364349	0	1	970.18780701910145581	0	NaN	NaN	0	1	1	0	1	0
2	1	11	48	70640	6407	0.78268898313399404287	0	1	1729.9479159992188215	0	NaN	NaN	0	1	1	0	1	0
2	1	11	49	42501	8393	0.78273527789860963821	0	1	1024.1355200123507529	0	NaN	NaN	0	1	1	0	1	0
2	1	11	50	34041	8116	0.78278157126624137163	1	1	1019.3367699976079166	0	35	NaN	1	1	0	1	2	0
2	1	11	51	70606	2044	0.78282786149065941572	0	0	1286.2967969849705696	0	NaN	NaN	0	0	0	1	2	0
2	1	11	52	63347	3862	0.78287415567319840193	1	1	1128.2491129823029041	0	247	NaN	1	1	0	1	2	0
2	1	11	53	33933	8019	0.7829204479930922389	0	1	934.59644698305055499	0	NaN	NaN	0	1	1	0	1	0
2	1	11	54	2492	1407	0.78301304986234754324	1	1	982.08265600260347128	0	50	NaN	1	1	0	1	2	0
2	1	11	55	11300	7367	0.78305933799128979445	1	1	1173.6145550094079226	0	589	NaN	1	1	0	1	2	0
2	1	11	56	9081	8706	0.78310562879778444767	0	1	984.64302800130099058	0	NaN	NaN	0	1	1	0	1	0
2	1	11	57	42403	2753	0.78315192693844437599	0	1	1383.231067011365667	0	NaN	NaN	0	1	1	0	1	0
2	1	11	58	58224	3802	0.78319821401964873075	0	0	1722.8197490039747208	0	NaN	NaN	0	0	0	1	2	0
2	1	11	59	38398	9657	0.78324450913351029158	1	1	721.84350999305024743	0	36	358	1	1	0	1	2	0
2	1	11	60	71528	5714	0.78329080925323069096	1	1	863.86269098147749901	0	191	390	1	1	0	1	2	0
2	1	11	61	26352	347	0.78333710180595517159	0	1	1237.2402820037677884	0	NaN	NaN	0	1	1	0	1	0
2	1	11	62	61824	4522	0.78338339296169579029	1	1	960.6419979827478528	0	16	NaN	1	1	0	1	2	0
2	1	11	63	32701	5102	0.78342968679498881102	0	1	1803.4038959885947406	0	NaN	NaN	0	1	1	0	1	0
2	1	12	1	9273	1122	0.78506347921211272478	0	1	1053.6265260016079992	0	NaN	NaN	0	1	1	0	1	0
2	1	12	2	4787	36	0.78510976943653076887	1	1	2251.2383330031298101	0	286	NaN	1	1	0	1	2	0
2	1	12	3	53481	5273	0.78515606350265443325	0	1	982.39061501226387918	0	NaN	NaN	0	1	1	0	1	0
2	1	12	4	62644	9335	0.78520234907045960426	1	1	1203.1643410155083984	0	269	NaN	1	1	0	1	2	0
2	1	12	5	48403	3410	0.7852486498886719346	1	1	1036.4011079946067184	0	54	NaN	1	1	0	1	2	0
2	1	12	6	59739	5670	0.78529494733083993196	0	1	1727.0390710036735982	0	NaN	NaN	0	1	1	0	1	0
2	1	12	7	35468	5449	0.78534123511053621769	0	1	1525.8097680052742362	0	NaN	NaN	0	1	1	0	1	0
2	1	12	8	32229	4580	0.78538753383327275515	0	1	1833.3294469921384007	0	NaN	NaN	0	1	1	0	1	0
2	1	12	9	44350	1994	0.78543382883071899414	0	1	1580.8309709827881306	0	NaN	NaN	0	1	1	0	1	0
2	1	12	10	69388	1386	0.78548012173268944025	0	0	1814.0443060256075114	1	NaN	NaN	0	0	1	1	2	0
2	1	12	11	14601	9828	0.78552641288843005896	0	1	970.37055497639812529	0	NaN	NaN	0	1	1	0	1	0
2	1	12	12	62791	9484	0.7855727106798440218	1	1	1677.7293960039969534	0	371	NaN	1	1	0	1	2	0
2	1	12	13	45421	1490	0.78561900428030639887	0	1	1003.1481949845328927	0	NaN	NaN	0	1	1	0	1	0
2	1	12	14	11160	131	0.78571159311104565859	0	1	1338.7733129784464836	0	NaN	NaN	0	1	1	0	1	0
2	1	12	15	72609	5518	0.78575788799207657576	0	1	1258.0914460122585297	0	NaN	NaN	0	1	1	0	1	0
2	1	12	16	62390	1103	0.7858041832223534584	0	0	1303.2336799951735884	0	NaN	NaN	0	0	0	1	2	0
2	1	12	17	21452	5354	0.78585047321394085884	0	1	1104.3521300016436726	0	NaN	NaN	0	1	1	0	1	0
2	1	12	18	22664	8405	0.78589676599949598312	0	0	1932.1828399843070656	0	NaN	NaN	0	0	0	1	2	0
2	1	12	19	38616	4272	0.78594305773731321096	0	1	1012.565641023684293	0	NaN	NaN	0	1	1	0	1	0
2	1	12	20	12466	9513	0.78598934982437640429	0	1	1218.9946150174364448	0	NaN	NaN	0	1	1	0	1	0
2	1	12	21	28264	7408	0.7860356522724032402	0	1	1902.5569109944626689	0	NaN	NaN	0	1	1	0	1	0
2	1	12	22	68959	2913	0.7860819399356842041	1	1	1118.7542930128984153	0	140	NaN	1	1	0	1	2	0
2	1	12	23	22607	1834	0.78612814296502619982	0	1	1553.1883120129350573	0	NaN	NaN	0	1	1	0	1	0
2	1	12	24	68132	7141	0.78622072935104370117	0	0	2054.4317619933281094	0	NaN	NaN	0	0	0	1	2	0
2	1	12	25	65730	1784	0.78626702562905848026	0	1	928.16559801576659083	0	NaN	NaN	0	1	1	0	1	0
2	1	12	26	68508	3880	0.78631331818178296089	0	1	1063.5578490037005395	0	NaN	NaN	0	1	1	0	1	0
2	1	12	27	2492	1407	0.78635960549581795931	1	1	975.52278699004091322	0	35	86	1	1	0	1	2	0
2	1	12	28	56527	5778	0.78640590864233672619	0	0	2637.6974089944269508	0	NaN	NaN	0	0	0	1	2	0
2	1	12	29	14008	5306	0.78645220282487571239	0	1	825.7658790098503232	0	NaN	NaN	0	1	1	0	1	0
2	1	12	30	72037	6677	0.78649849432986229658	0	1	1202.3467849940061569	0	NaN	NaN	0	1	1	0	1	0
2	1	12	31	59704	6378	0.78654479305259883404	0	1	847.74234297219663858	0	NaN	NaN	0	1	1	0	1	0
2	1	12	32	58514	2451	0.7865910801338031888	1	1	1128.6064510059077293	0	305	NaN	1	1	0	1	2	0
2	1	12	33	20005	3822	0.7866373721044510603	1	1	1102.8169279743451625	0	48	NaN	1	1	0	1	2	0
2	1	12	34	56122	5870	0.78672996978275477886	0	1	1726.3825329719111323	0	NaN	NaN	0	1	1	0	1	0
2	1	12	35	63326	2567	0.78677625500131398439	0	1	1460.4681060009170324	0	NaN	NaN	0	1	1	0	1	0
2	1	12	36	34823	1446	0.78682255733292549849	0	1	1331.2759520194958895	0	NaN	NaN	0	1	1	0	1	0
2	1	12	37	14529	173	0.78686885093338787556	1	1	659.40969999064691365	0	123	NaN	1	1	0	1	2	0
2	1	12	38	47092	5360	0.78691513917874544859	0	1	2179.1945110016968101	0	NaN	NaN	0	1	1	0	1	0
2	1	12	39	28338	6168	0.7869614381343126297	1	1	852.21102301147766411	0	78	NaN	1	1	0	1	2	0
2	1	12	40	36169	4599	0.78700772963929921389	1	1	755.14880000264383852	0	70	84	1	1	0	1	2	0
2	1	12	41	58187	4614	0.78705402452033013105	0	1	1124.7788989858236164	0	NaN	NaN	0	1	1	0	1	0
2	1	12	42	57050	8417	0.78710031346417963505	0	1	1791.1585499823559076	0	NaN	NaN	0	1	1	0	1	0
2	1	12	43	33903	2034	0.78719290241133421659	0	1	826.55933100613765419	0	NaN	NaN	0	1	1	0	1	0
2	1	12	44	29838	398	0.78723920357879251242	0	1	1553.5994259989820421	0	NaN	NaN	0	1	1	0	1	0
2	1	12	45	35176	8629	0.78728549648076295853	0	1	1337.4303510063327849	0	NaN	NaN	0	1	1	0	1	0
2	1	12	46	33485	1411	0.78733178903348743916	0	1	1051.4886339951772243	0	NaN	NaN	0	1	1	0	1	0
2	1	12	47	26374	2152	0.787378080771304667	0	1	1282.5445070047862828	0	NaN	NaN	0	1	1	0	1	0
2	1	12	48	59202	6858	0.78742428193800151348	0	1	1134.5186429971363395	0	NaN	NaN	0	1	1	0	1	0
2	1	12	49	39990	9391	0.78747057029977440834	0	1	1168.8023020105902106	0	NaN	NaN	0	1	1	0	1	0
2	1	12	50	21452	5354	0.78751686762552708387	1	1	658.17562301526777446	0	32	NaN	1	1	0	1	2	0
2	1	12	51	58145	805	0.78756315878126770258	1	1	718.65361600066535175	0	240	NaN	1	1	0	1	2	0
2	1	12	52	4008	4665	0.78765574737917631865	0	1	1454.0225289820227772	0	NaN	NaN	0	1	1	0	1	0
2	1	12	53	7157	7561	0.78770204796455800533	1	1	1349.5239710027817637	0	122	NaN	1	1	0	1	2	0
2	1	12	54	66565	8160	0.78774834424257278442	0	1	1102.113974979147315	0	NaN	NaN	0	1	1	0	1	0
2	1	12	55	41211	2161	0.78779463621322065592	0	1	962.02371999970637262	0	NaN	NaN	0	1	1	0	1	0
2	1	12	56	11876	7903	0.78784093086142092943	0	1	903.15357700455933809	0	NaN	NaN	0	1	1	0	1	0
2	1	12	57	1864	7560	0.78788722387980669737	0	1	1454.7630859888158739	0	NaN	NaN	0	1	1	0	1	0
2	1	12	58	37499	2370	0.78793351806234568357	0	1	937.98723100917413831	0	NaN	NaN	0	1	1	0	1	0
2	1	12	59	38286	2563	0.78797981352545320988	0	0	905.37774897529743612	0	NaN	NaN	0	0	0	1	2	0
2	1	12	60	48682	670	0.78802610794082283974	0	1	1632.8368780086748302	0	NaN	NaN	0	1	1	0	1	0
2	1	12	61	24990	9409	0.78807239665184170008	0	1	814.34035400161519647	0	NaN	NaN	0	1	1	0	1	0
2	1	12	62	29703	9681	0.78811868862248957157	0	1	1655.9958099969662726	0	NaN	NaN	0	1	1	0	1	0
2	2	1	1	44176	8819	9.5930427019484341145	0	1	2412.9916890087770298	1	NaN	NaN	0	1	1	1	1	0
2	2	1	2	7066	2972	9.5930890009040012956	0	1	981.22576599416788667	0	NaN	NaN	0	1	1	0	1	0
2	2	1	3	14595	175	9.5931352843763306737	0	1	1138.7261550116818398	0	NaN	NaN	0	1	1	0	1	0
2	2	1	4	47250	6169	9.5931815968360751867	1	1	1890.2622860041446984	0	219	NaN	0	0	0	1	2	0
2	2	1	5	50417	1591	9.5932278783293440938	0	1	917.75414400035515428	0	NaN	NaN	0	1	1	0	1	0
2	2	1	6	19301	4692	9.5932741798460483551	0	0	1323.736639998969622	0	NaN	NaN	0	0	0	1	2	0
2	2	1	7	40209	4152	9.593320462154224515	0	1	1309.4338539958698675	0	NaN	NaN	0	1	1	0	1	0
2	2	1	8	18850	7167	9.5933667643694207072	0	1	1284.9033009988488629	0	NaN	NaN	0	1	1	0	1	0
2	2	1	9	18481	4465	9.5934130578534677625	1	1	2258.3124280063202605	1	154	NaN	0	0	1	1	2	0
2	2	1	10	44708	5313	9.5934593593701720238	0	1	1545.2114739891840145	0	NaN	NaN	0	1	1	0	1	0
2	2	1	11	24481	305	9.5935056408634409308	0	1	1404.929411000921391	0	NaN	NaN	0	1	1	0	1	0
2	2	1	12	52018	9575	9.5935519438935443759	1	0	1423.6117810069117695	0	346	NaN	0	1	1	0	1	0
2	2	1	13	36975	487	9.5935982306255027652	0	1	1148.5465000005206093	0	NaN	NaN	0	1	1	0	1	0
2	2	1	14	64765	3997	9.593644537846557796	0	1	1442.0740579953417182	0	NaN	NaN	0	1	1	0	1	0
2	2	1	15	42681	7390	9.5937371188774704933	1	0	1769.9203980009770021	0	233	NaN	0	1	1	0	1	0
2	2	1	16	49029	1277	9.5937834093347191811	0	1	1007.3058999987551942	0	NaN	NaN	0	1	1	0	1	0
2	2	1	17	29672	2195	9.5938296997919678688	0	1	1238.0879060074221343	0	NaN	NaN	0	1	1	0	1	0
2	2	1	18	72321	5101	9.5938759916462004185	0	1	1349.7504190017934889	0	NaN	NaN	0	1	1	0	1	0
2	2	1	19	42978	1826	9.5939222790766507387	0	1	1746.3863540033344179	0	NaN	NaN	0	1	1	0	1	0
2	2	1	20	50417	1591	9.5939685784978792071	1	1	823.94729800580535084	0	14	NaN	1	1	0	1	2	0
2	2	1	21	65597	2080	9.5940148745430633426	0	1	1355.2397589955944568	0	NaN	NaN	0	1	1	0	1	0
2	2	1	22	24275	3804	9.5940611719852313399	0	1	972.39063400775194168	0	NaN	NaN	0	1	1	0	1	0
2	2	1	23	14702	2773	9.5941074599977582693	0	0	944.14604600751772523	0	NaN	NaN	0	0	0	1	2	0
2	2	1	24	6605	5345	9.5942000526702031493	1	0	1110.3003400057787076	0	190	NaN	0	1	1	0	1	0
2	2	1	25	36246	7130	9.5942463409155607224	1	1	1076.1779580061556771	0	336	497	0	0	0	1	2	0
2	2	1	26	43875	3770	9.5942926401039585471	1	0	1112.5249609904130921	0	646	NaN	0	1	1	0	1	0
2	2	1	27	69388	1386	9.5943389382446184754	1	1	1387.2862429998349398	0	78	NaN	0	0	0	2	2	0
2	2	1	28	3248	9317	9.5943852277705445886	0	1	1010.9946660086279735	0	NaN	NaN	0	1	1	0	1	0
2	2	1	29	8469	8105	9.5944315234664827585	0	1	1463.6924720107344911	0	NaN	NaN	0	1	1	0	1	0
2	2	1	30	47247	8280	9.5944778218399733305	1	1	1134.4365550030488521	0	413	NaN	0	0	0	1	2	0
2	2	1	31	36911	485	9.5945241147419437766	0	1	902.5429080065805465	0	NaN	NaN	0	1	1	0	1	0
2	2	1	32	16703	200	9.5945703973993659019	0	1	1057.1978200023295358	0	NaN	NaN	0	1	1	0	1	0
2	2	1	33	48997	9130	9.5946166961221024394	0	1	819.39078700088430196	0	NaN	NaN	0	1	1	0	1	0
2	2	1	34	17039	2587	9.5946628940291702747	0	1	1832.9347440012497827	0	NaN	NaN	0	1	1	0	1	0
2	2	1	35	61744	2904	9.5947091869311407208	0	1	1186.6912609984865412	0	NaN	NaN	0	1	1	0	1	0
2	2	1	36	16655	4239	9.5948017706396058202	0	1	1304.1789589915424585	0	NaN	NaN	0	1	1	0	1	0
2	2	1	37	58466	8001	9.5948480791412293911	0	1	1153.2980070041958243	0	NaN	NaN	0	1	1	0	1	0
2	2	1	38	42710	3312	9.5948943698313087225	0	1	1341.4751649979734793	0	NaN	NaN	0	1	1	0	1	0
2	2	1	39	71289	6903	9.5949406566796824336	0	1	1530.1666909945197403	0	NaN	NaN	0	1	1	0	1	0
2	2	1	40	44708	5313	9.5949869574978947639	1	1	822.11508600448723882	0	29	NaN	1	1	0	1	2	0
2	2	1	41	22031	5567	9.5950332543579861522	0	1	1643.1094290019245818	0	NaN	NaN	0	1	1	0	1	0
2	2	1	42	7907	9012	9.5950795462122187018	0	1	1268.5546519933268428	0	NaN	NaN	0	1	1	0	1	0
2	2	1	43	44589	5208	9.595125841093249619	0	1	915.91743599565234035	0	NaN	NaN	0	1	1	0	1	0
2	2	1	44	5819	3475	9.5951721337623894215	0	1	1210.6211609934689477	0	NaN	NaN	0	1	1	0	1	0
2	2	1	45	50289	2336	9.5952184239868074656	1	1	1104.4035259983502328	0	366	433	0	0	0	1	2	0
2	2	1	46	51435	9008	9.595311012351885438	1	0	979.05799400177784264	0	192	NaN	0	1	1	0	1	0
2	2	1	47	24928	7974	9.5953573053702712059	1	1	1111.5249610011233017	0	333	539	0	0	0	1	2	0
2	2	1	48	66800	8441	9.5954035999020561576	1	0	1105.9442689875140786	0	582	NaN	0	1	1	0	1	0
2	2	1	49	5603	53	9.595449902699328959	1	0	970.53809899080079049	0	565	NaN	0	1	1	0	1	0
2	2	1	50	3627	14	9.5954961923416703939	1	0	1701.943970998399891	0	224	NaN	0	1	1	0	1	0
2	2	1	51	9430	2255	9.5955424783751368523	1	0	1186.4367969974409789	0	256	NaN	0	1	1	0	1	0
2	2	1	52	58816	4096	9.5955887774471193552	0	1	887.63512999867089093	0	NaN	NaN	0	1	2	0	1	0
2	2	1	53	61749	848	9.5956350715132430196	0	1	1276.0104359913384542	0	NaN	NaN	0	1	1	0	1	0
2	2	1	54	41943	4139	9.5956813629018142819	0	1	1519.1061430086847395	0	NaN	NaN	0	1	1	0	1	0
2	2	1	55	6965	9969	9.595773957553319633	0	1	1602.3367089946987107	0	NaN	NaN	0	1	1	0	1	0
2	2	1	56	56743	5604	9.5958202505717054009	0	1	1761.6026629984844476	0	NaN	NaN	0	1	1	0	1	0
2	2	1	57	71766	5629	9.5958664434729143977	0	1	1131.9026860001031309	0	NaN	NaN	0	1	1	0	1	0
2	2	1	58	56628	5555	9.5959127426613122225	0	1	1236.5585520019521937	0	NaN	NaN	0	1	1	0	1	0
2	2	1	59	8007	86	9.5959590376587584615	0	1	1079.886759995133616	0	NaN	NaN	0	1	1	0	1	0
2	2	1	60	11251	7292	9.5960053311428055167	0	1	768.94374800031073391	0	NaN	NaN	0	1	1	0	1	0
2	2	1	61	15092	2391	9.5960516224149614573	0	1	1376.0066219983855262	0	NaN	NaN	0	1	1	0	1	0
2	2	1	62	14324	1282	9.596097919624298811	0	1	1102.9522489989176393	0	NaN	NaN	0	1	1	0	1	0
2	2	1	63	26374	2152	9.5961442103143781424	1	0	2284.0815029921941459	0	77	NaN	0	1	1	0	1	0
2	2	2	1	27766	7785	9.5980692509328946471	0	1	1275.5481529893586412	0	NaN	NaN	0	1	1	0	1	0
2	2	2	2	35303	4946	9.5981155511690303683	0	1	1285.0838259910233319	0	NaN	NaN	0	1	1	0	1	0
2	2	2	3	40201	6483	9.5981618383666500449	0	1	1279.1190310090314597	0	NaN	NaN	0	1	1	0	1	0
2	2	2	4	60624	1436	9.5982081341790035367	0	1	1203.4297210047952831	0	NaN	NaN	0	1	1	0	1	0
2	2	2	5	42241	6808	9.5982544227736070752	0	1	1130.8201139909215271	0	NaN	NaN	0	1	1	0	1	0
2	2	2	6	3484	6129	9.5983007327886298299	0	1	1301.4192749978974462	0	NaN	NaN	0	1	1	0	1	0
2	2	2	7	9894	3625	9.5983470070641487837	0	1	1254.0386639884673059	0	NaN	NaN	0	1	1	0	1	0
2	2	2	8	7221	4127	9.5983933266252279282	0	1	1072.2129580099135637	0	NaN	NaN	0	1	1	0	1	0
2	2	2	9	4787	36	9.5984396038111299276	1	1	1158.4674499899847433	0	131	418	0	0	0	1	2	0
2	2	2	10	9894	3625	9.5984859239542856812	1	1	1172.9182370036141947	0	2	NaN	1	1	0	1	2	0
2	2	2	11	41071	8509	9.5985785196535289288	0	1	1022.5074850022792816	0	NaN	NaN	0	1	1	0	1	0
2	2	2	12	6190	7629	9.5986247800756245852	0	1	1886.8277809961000457	0	NaN	NaN	0	1	1	0	1	0
2	2	2	13	48250	1218	9.5986711179139092565	1	1	1134.3251600046642125	0	170	NaN	0	0	0	1	2	0
2	2	2	14	7455	6410	9.598717368789948523	1	0	2008.7554450001334772	0	267	NaN	0	1	1	0	1	0
2	2	2	15	13139	159	9.5987637146608904004	0	1	971.27140499651432037	0	NaN	NaN	0	1	1	0	1	0
2	2	2	16	36911	485	9.5988099511014297605	1	1	832.0413700130302459	0	47	NaN	1	1	0	1	2	0
2	2	2	17	49660	3127	9.5988563111750409007	0	1	1307.07931199867744	0	NaN	NaN	0	1	1	0	1	0
2	2	2	18	13945	9744	9.598902545403689146	0	1	1305.0844770041294396	0	NaN	NaN	0	1	1	0	1	0
2	2	2	19	27787	3412	9.5989488965133205056	0	1	1248.1514530081767589	0	NaN	NaN	0	1	1	0	1	0
2	2	2	20	19443	9461	9.5989951243391260505	0	1	1372.8567009966354817	0	NaN	NaN	0	1	1	0	1	0
2	2	2	21	16669	4620	9.5990877225995063782	1	0	1065.0292719947174191	0	181	NaN	0	1	1	0	1	0
2	2	2	22	28712	4250	9.5991340867476537824	0	1	1104.5886320061981678	0	NaN	NaN	0	1	1	0	1	0
2	2	2	23	23580	8816	9.5991803065408021212	1	0	1490.0818789901677519	0	272	NaN	0	1	1	0	1	0
2	2	2	24	17039	2587	9.5992266831453889608	1	1	746.70176900690421462	0	52	NaN	1	1	0	1	2	0
2	2	2	25	62021	7627	9.599272896652109921	0	1	960.41050300118513405	0	NaN	NaN	0	1	1	0	1	0
2	2	2	26	25455	327	9.599319279077462852	0	1	3925.4129290056880563	1	NaN	NaN	0	1	1	1	1	0
2	2	2	27	41049	7054	9.5993654845515266061	0	1	1902.2970229998463765	0	NaN	NaN	0	1	1	0	1	0
2	2	2	28	50639	6637	9.5994118821108713746	0	0	2054.6901189954951406	0	NaN	NaN	0	0	0	1	2	0
2	2	2	29	5635	4945	9.5994580750120803714	0	1	1327.7354239980923012	0	NaN	NaN	0	1	1	0	1	0
2	2	2	30	38973	3524	9.5995043768780305982	0	1	842.48969100008253008	0	NaN	NaN	0	1	1	0	1	0
2	2	2	31	19655	8854	9.5995505561586469412	0	1	1137.5355700001819059	0	NaN	NaN	0	1	1	0	1	0
2	2	2	32	20005	3822	9.5995968527859076858	1	1	1114.8108799970941618	0	123	172	0	0	0	1	2	0
2	2	2	33	14529	173	9.5996431533712893724	1	1	1126.0707449982874095	0	120	244	0	0	0	1	2	0
2	2	2	34	23747	3975	9.5997357377782464027	0	1	787.76135000225622207	0	NaN	NaN	0	1	1	0	1	0
2	2	2	35	27535	8077	9.5997820292832329869	0	1	1303.034399010357447	0	NaN	NaN	0	1	1	0	1	0
2	2	2	36	15952	3935	9.5998283200897276402	0	0	2449.5652579935267568	0	NaN	NaN	0	0	0	1	2	0
2	2	2	37	44589	5208	9.5998746233526617289	1	1	782.93570398818701506	0	56	NaN	1	1	0	1	2	0
2	2	2	38	10542	3179	9.5999209221918135881	0	1	737.58833399915602058	0	NaN	NaN	0	1	1	0	1	0
2	2	2	39	6178	1189	9.5999672088073566556	0	1	1485.4107830033171922	0	NaN	NaN	0	1	1	0	1	0
2	2	2	40	21914	8403	9.6000135033391416073	0	1	929.86610200023278594	0	NaN	NaN	0	1	1	0	1	0
2	2	2	41	39953	1776	9.6000598000828176737	0	1	1250.4522800008999184	0	NaN	NaN	0	1	1	0	1	0
2	2	2	42	54895	4187	9.6001060893759131432	0	1	1472.6288130041211843	0	NaN	NaN	0	1	1	0	1	0
2	2	2	43	8676	3769	9.6001523874001577497	0	1	1502.4781369866104797	0	NaN	NaN	0	1	1	0	1	0
2	2	2	44	17429	4812	9.6002449756488204002	0	1	1146.868430994800292	0	NaN	NaN	0	1	1	0	1	0
2	2	2	45	17981	6635	9.6002912709955126047	0	0	2666.3632269919617102	1	NaN	NaN	0	0	1	1	2	0
2	2	2	46	45421	1490	9.600337560405023396	1	1	2682.4358129961183295	0	157	NaN	0	0	0	1	2	0
2	2	2	47	56971	9571	9.6003838548203930259	1	0	921.05967900715768337	0	280	NaN	0	1	1	0	1	0
2	2	2	48	69388	1386	9.6004301533102989197	1	1	959.16091698745731264	0	83	162	1	1	0	1	2	0
2	2	2	49	1262	5896	9.6004764415556564927	1	1	1923.0261820048326626	0	331	NaN	0	0	0	1	2	0
2	2	2	50	14692	3371	9.6005227362038567662	0	1	1238.9117440034169704	0	NaN	NaN	0	1	1	0	1	0
2	2	2	51	64994	8303	9.6005690351594239473	0	1	1455.0532430002931505	0	NaN	NaN	0	1	1	0	1	0
2	2	2	52	33090	8258	9.6006153217749670148	0	1	1291.2028389982879162	0	NaN	NaN	0	1	1	0	1	0
2	2	2	53	63190	2854	9.6006616229424253106	0	1	1060.6263119989307597	0	NaN	NaN	0	1	1	0	1	0
2	2	2	54	2973	5745	9.6007542042061686516	1	1	976.76356500596739352	0	229	344	0	0	0	1	2	0
2	2	2	55	47308	8175	9.6008005008334293962	1	0	1764.4735369976842776	0	449	NaN	0	1	1	0	1	0
2	2	2	56	9751	6851	9.6008468036307021976	0	1	1253.3715789904817939	0	NaN	NaN	0	1	1	0	1	0
2	2	2	57	9231	108	9.6008930949028581381	0	1	977.6543119951384142	0	NaN	NaN	0	1	1	0	1	0
2	2	2	58	14595	175	9.600939384545199573	1	1	1816.0519219964044169	0	117	NaN	1	1	0	1	2	0
2	2	2	59	9751	6851	9.6009856837335973978	1	1	724.45174898894038051	0	2	NaN	1	1	0	1	2	0
2	2	2	60	64994	8303	9.6010318814078345895	1	1	758.89388599898666143	0	8	NaN	1	1	0	1	2	0
2	2	2	61	50377	3663	9.6010781667428091168	0	1	1158.7051980022806674	0	NaN	NaN	0	1	1	0	1	0
2	2	2	62	42978	1826	9.6011244694236665964	1	1	867.88878800871316344	0	105	NaN	1	1	0	1	2	0
2	2	3	1	61749	848	9.6026252494193613529	1	1	1442.4425659963162616	0	72	NaN	1	1	0	1	2	0
2	2	3	2	49061	1143	9.6026716014603152871	0	1	929.81345400039572269	0	NaN	NaN	0	1	1	0	1	0
2	2	3	3	30102	2020	9.6027178324293345213	0	1	1278.9472220028983429	0	NaN	NaN	0	1	1	0	1	0
2	2	3	4	17377	3783	9.6027642013505101204	0	0	1603.209116990910843	0	NaN	NaN	0	0	0	1	2	0
2	2	3	5	17429	4812	9.6028104171855375171	1	1	788.22924300038721412	0	22	NaN	1	1	0	1	2	0
2	2	3	6	9049	106	9.6028567965840920806	0	1	1139.7475600097095594	0	NaN	NaN	0	1	1	0	1	0
2	2	3	7	31790	4361	9.6029030079953372478	0	1	1210.0188659969717264	0	NaN	NaN	0	1	1	0	1	0
2	2	3	8	16433	1626	9.6029493930982425809	0	1	1080.5096859985496849	0	NaN	NaN	0	1	1	0	1	0
2	2	3	9	27685	3996	9.6029955977573990822	1	1	1038.5135640099179	0	568	NaN	0	0	0	1	2	0
2	2	3	10	37390	4292	9.6030419892631471157	0	1	953.89441199949942529	0	NaN	NaN	0	1	1	0	1	0
2	2	3	11	9081	8706	9.6031345851952210069	1	1	2520.832927999435924	1	204	NaN	0	0	1	1	2	0
2	2	3	12	18892	1420	9.6031807694816961884	0	1	1968.8905520015396178	0	NaN	NaN	0	1	1	0	1	0
2	2	3	13	55399	9893	9.6032271812437102199	0	1	1367.8602069994667545	0	NaN	NaN	0	1	2	0	1	0
2	2	3	14	72854	7841	9.603273365180939436	0	1	1573.5869060008553788	0	NaN	NaN	0	1	1	0	1	0
2	2	3	15	14858	1803	9.6033197767101228237	0	1	1259.9732730013784021	0	NaN	NaN	0	1	1	0	1	0
2	2	3	16	53321	1040	9.603365954477339983	1	1	2114.039788008085452	1	232	NaN	0	0	1	2	2	0
2	2	3	17	66193	3284	9.6034122420242056251	1	1	1474.6026639913907275	0	761	NaN	0	0	0	1	2	0
2	2	3	18	18412	1498	9.6034585456363856792	0	1	937.81608299468643963	0	NaN	NaN	0	1	1	0	1	0
2	2	3	19	38269	2485	9.6035047743935137987	0	1	2225.7147360069211572	0	NaN	NaN	0	1	1	0	1	0
2	2	3	20	51435	9008	9.6035973415710031986	1	1	1258.3035270072286949	1	98	291	1	1	1	1	2	0
2	2	3	21	62791	9484	9.603643622831441462	1	1	1605.5770669918274507	0	195	567	0	0	0	1	2	0
2	2	3	22	44350	1994	9.6036899116588756442	1	1	1931.3077980041271076	0	199	NaN	0	0	0	1	2	0
2	2	3	23	46000	625	9.6037362106144428253	0	1	1327.3485329991672188	0	NaN	NaN	0	1	1	0	1	0
2	2	3	24	44176	8819	9.6037825068924576044	1	0	1860.6834829988656566	0	147	NaN	1	0	1	0	1	0
2	2	3	25	52333	7020	9.6038287970004603267	1	0	1506.2195470090955496	0	426	NaN	0	1	1	0	1	0
2	2	3	26	42852	570	9.60387508908752352	0	1	847.19291700457688421	0	NaN	NaN	0	1	1	0	1	0
2	2	3	27	34887	7066	9.6039213907206431031	0	1	951.625488989520818	0	NaN	NaN	0	1	1	0	1	0
2	2	3	28	24899	7410	9.6039676741929724813	0	1	964.95391400821972638	0	NaN	NaN	0	1	1	0	1	0
2	2	3	29	61675	7306	9.6040139758260920644	0	1	1365.452066995203495	0	NaN	NaN	0	1	1	0	1	0
2	2	3	30	27766	7785	9.604106562677770853	1	1	1044.2899659974500537	0	90	NaN	1	1	0	1	2	0
2	2	3	31	40209	4152	9.6041528501082211733	1	1	1206.6744889889378101	0	148	NaN	1	1	0	1	2	0
2	2	3	32	3321	1645	9.6041991531383246183	1	0	902.52416599832940847	0	682	NaN	0	1	1	0	1	0
2	2	3	33	22516	276	9.6042454472044482827	0	1	2019.2582330055302009	0	NaN	NaN	0	1	1	0	1	0
2	2	3	34	50273	1475	9.6042917410377413034	0	1	2119.2813450034009293	0	NaN	NaN	0	1	1	0	1	0
2	2	3	35	13783	1102	9.604338037665002048	0	1	1252.8428660007193685	0	NaN	NaN	0	1	1	0	1	0
2	2	3	36	17429	4812	9.6043843209045007825	1	1	669.62283199245575815	0	30	53	1	1	0	1	2	0
2	2	3	37	40209	4152	9.6044306200928986073	1	1	838.39559199986979365	0	5	154	1	1	0	1	2	0
2	2	3	38	36911	485	9.6044769177678972483	1	1	789.25748199981171638	0	83	131	1	1	0	1	2	0
2	2	3	39	40841	534	9.6045232027536258101	0	0	1006.1748250009259209	0	NaN	NaN	0	0	0	1	2	0
2	2	3	40	7157	7561	9.6045695010107010603	1	1	1455.6384489987976849	0	173	296	0	0	0	1	2	0
2	2	3	41	37155	7116	9.6046157993841916323	0	1	1043.2724779966520146	0	NaN	NaN	0	1	1	0	1	0
2	2	3	42	56036	4035	9.6047082884470000863	0	1	1460.3824439982417971	0	NaN	NaN	0	1	1	0	1	0
2	2	3	43	32780	6077	9.6047545837936922908	0	1	1261.9560830062255263	0	NaN	NaN	0	1	1	0	1	0
2	2	3	44	48157	4593	9.6048008810030296445	0	1	1177.2889290004968643	0	NaN	NaN	0	1	1	0	1	0
2	2	3	45	46690	4442	9.6048471706453710794	0	1	1776.9254400045610964	0	NaN	NaN	0	1	1	0	1	0
2	2	3	46	48997	9130	9.6048934598220512271	1	1	716.64129600685555488	0	137	NaN	1	1	0	1	2	0
2	2	3	47	61749	848	9.6049397620372474194	1	1	826.01489599619526416	0	45	118	1	1	0	1	2	0
2	2	3	48	61558	5221	9.6049860564526170492	0	1	1080.9490749961696565	0	NaN	NaN	0	1	1	0	1	0
2	2	3	49	44708	5313	9.6050323538947850466	1	1	1627.9149339970899746	0	133	163	1	1	0	1	2	0
2	2	3	50	62320	4893	9.6050786375999450684	0	1	1251.0058329935418442	0	NaN	NaN	0	1	1	0	1	0
2	2	3	51	9028	105	9.6051249344600364566	0	1	1338.4537719975924119	0	NaN	NaN	0	1	1	0	1	0
2	2	3	52	34793	1937	9.6051712261978536844	0	1	1161.7644950019894168	0	NaN	NaN	0	1	1	0	1	0
2	2	3	53	68740	4900	9.6052175278309732676	1	1	1013.9713009994011372	0	802	NaN	0	0	0	1	2	0
2	2	3	54	9751	6851	9.6053101153811439872	1	1	970.98046900646295398	0	56	59	1	1	0	1	2	0
2	2	3	55	17597	6265	9.6053564099129289389	0	1	770.72527100972365588	0	NaN	NaN	0	1	1	0	1	0
2	2	3	56	12000	1069	9.6054026954807341099	1	1	1425.6797560083214194	0	276	NaN	0	0	0	1	2	0
2	2	3	57	29672	2195	9.6054490003734827042	1	1	1602.7648710005450994	0	164	NaN	1	1	0	1	2	0
2	2	3	58	24077	2484	9.6054952926933765411	0	1	1522.5063640100415796	0	NaN	NaN	0	1	1	0	1	0
2	2	3	59	51190	3699	9.6055415858281776309	0	1	1602.2107960016001016	0	NaN	NaN	0	1	1	0	1	0
2	2	3	60	54114	3940	9.6055878745391964912	0	1	981.54061999230179936	0	NaN	NaN	0	1	1	0	1	0
2	2	3	61	41049	7054	9.6056341748917475343	1	0	1784.2064930009655654	0	95	NaN	1	0	1	0	1	0
2	2	3	62	239	2492	9.6056804627878591418	0	1	1565.8217910095117986	0	NaN	NaN	0	1	1	0	1	0
2	2	3	63	6190	7629	9.605726756970398128	1	0	2165.9012590098427609	0	112	NaN	1	0	1	0	1	0
2	2	4	1	53481	5273	9.6073659453541040421	1	0	1963.7310399994021282	0	247	NaN	0	1	1	0	1	0
2	2	4	2	22998	4467	9.6074122396530583501	0	1	1102.4598040094133466	0	NaN	NaN	0	1	1	0	1	0
2	2	4	3	56743	5604	9.6074585305759683251	1	1	1380.7334409939358011	0	134	NaN	1	1	0	1	2	0
2	2	4	4	7221	4127	9.6075048412894830108	1	1	726.8480280035873875	0	120	NaN	1	1	0	1	2	0
2	2	4	5	16559	5242	9.6075511148665100336	0	1	1003.3042159921023995	0	NaN	NaN	0	1	1	0	1	0
2	2	4	6	53892	742	9.6075974282575771213	0	1	1401.5866069967160001	0	NaN	NaN	0	1	1	0	1	0
2	2	4	7	29083	5995	9.6076437135925516486	0	1	1244.6573469933355227	0	NaN	NaN	0	1	1	0	1	0
2	2	4	8	33369	6183	9.6076900018379092216	0	1	1258.8810219895094633	0	NaN	NaN	0	1	1	0	1	0
2	2	4	9	42431	3974	9.607736299280077219	0	1	1485.4820620093960315	0	NaN	NaN	0	1	1	0	1	0
2	2	4	10	619	3927	9.6078288860153406858	0	1	1036.2895170110277832	0	NaN	NaN	0	1	1	0	1	0
2	2	4	11	71218	9913	9.6078751799650490284	1	1	1566.0163970023859292	0	874	NaN	0	0	0	1	2	0
2	2	4	12	34887	7066	9.6079214782221242785	1	1	722.75991800415795296	0	47	NaN	1	1	0	1	2	0
2	2	4	13	61874	853	9.607967761461623013	0	1	1064.3774130003293976	0	NaN	NaN	0	1	1	0	1	0
2	2	4	14	19050	7979	9.6080140612320974469	0	1	1169.3061760015552863	0	NaN	NaN	0	1	1	0	1	0
2	2	4	15	37252	2247	9.6080603532027453184	0	0	1252.0374199957586825	0	NaN	NaN	0	0	0	1	2	0
2	2	4	16	26354	4061	9.6081066514598205686	1	0	1162.1767600008752197	0	855	NaN	0	1	1	0	1	0
2	2	4	17	45158	7697	9.6081529384246096015	1	1	1308.0703820014605299	0	392	NaN	0	0	0	1	2	0
2	2	4	18	57937	2287	9.6081992349354550242	0	1	1206.2137570028426126	0	NaN	NaN	0	1	1	0	1	0
2	2	4	19	72651	9977	9.6082918276078999043	0	1	1422.4610329983988777	0	NaN	NaN	0	1	1	0	1	0
2	2	4	20	47258	6728	9.6083381185308098793	0	1	2124.3258959875674918	0	NaN	NaN	0	1	1	0	1	0
2	2	4	21	41443	5811	9.6083844127133488655	0	1	1679.9915009905816987	0	NaN	NaN	0	1	1	0	1	0
2	2	4	22	12405	3586	9.6084307058481499553	0	1	920.0996699946699664	0	NaN	NaN	0	1	1	0	1	0
2	2	4	23	65086	2584	9.608476908877491951	0	1	1336.6950710042146966	0	NaN	NaN	0	1	1	0	1	0
2	2	4	24	51297	5905	9.608523194445297122	0	1	1818.1825760111678392	0	NaN	NaN	0	1	1	0	1	0
2	2	4	25	23150	6619	9.6085694881621748209	0	1	1443.0383759899996221	0	NaN	NaN	0	1	1	0	1	0
2	2	4	26	53481	5273	9.6086157902609556913	1	1	834.74841200222726911	0	24	272	1	1	0	1	2	0
2	2	4	27	68740	4900	9.6086620850255712867	1	NaN	NaN	NaN	36	839	1	NaN	0	0	NaN	0
2	2	4	28	51649	1482	9.608708374435082078	1	0	1247.0428259985055774	0	323	NaN	0	1	1	0	1	0
2	2	4	29	26996	6719	9.6087546730414032936	0	1	1029.2717210104456171	0	NaN	NaN	0	1	1	0	1	0
2	2	4	30	52333	7020	9.6088009680388495326	1	1	745.06797399953939021	0	67	494	1	1	0	1	2	0
2	2	4	31	1073	5563	9.6088935504667460918	0	1	1438.4581420017639175	0	NaN	NaN	0	1	1	0	1	0
2	2	4	32	10274	7950	9.6089398498879745603	0	1	1493.136208999203518	0	NaN	NaN	0	1	1	0	1	0
2	2	4	33	43267	3249	9.608986137667670846	0	1	1202.9971260053571314	0	NaN	NaN	0	1	1	0	1	0
2	2	4	34	38569	8261	9.6090324368560686707	0	1	1436.5949689963599667	0	NaN	NaN	0	1	1	0	1	0
2	2	4	35	64903	8768	9.6090787306893616915	0	1	1012.6138439954956993	0	NaN	NaN	0	1	1	0	1	0
2	2	4	36	72651	9977	9.6091250272002071142	1	1	804.2156510055065155	0	16	NaN	1	1	0	1	2	0
2	2	4	37	69875	9537	9.609171320335008204	0	1	1239.23720300081186	0	NaN	NaN	0	1	1	0	1	0
2	2	4	38	20347	7895	9.6092176157981157303	0	1	1649.8355770017951727	0	NaN	NaN	0	1	1	0	1	0
2	2	4	39	10773	2206	9.6092639087000861764	0	1	1133.0973220028681681	0	NaN	NaN	0	1	1	0	1	0
2	2	4	40	41503	9316	9.6093102027662098408	0	1	1230.7148679974488914	0	NaN	NaN	0	1	1	0	1	0
2	2	4	41	59704	6378	9.6093564971815794706	1	1	2303.0165270029101521	0	259	NaN	0	0	0	1	2	0
2	2	4	42	23605	4567	9.6094027896178886294	0	1	1233.3723030023975298	0	NaN	NaN	0	1	1	0	1	0
2	2	4	43	10274	7950	9.6094953776337206364	1	1	802.44654099806211889	0	10	NaN	1	1	0	1	2	0
2	2	4	44	27047	8037	9.6095416749594733119	0	1	1109.1222440009005368	0	NaN	NaN	0	1	1	0	1	0
2	2	4	45	44611	4211	9.6095879590138792992	1	1	1209.0664370043668896	0	404	NaN	0	0	0	1	2	0
2	2	4	46	47454	2604	9.6096342557575553656	1	1	1335.2760419948026538	0	502	516	0	0	0	1	2	0
2	2	4	47	9797	3070	9.6096805557608604431	0	1	839.9414599989540875	0	NaN	NaN	0	1	1	0	1	0
2	2	4	48	21024	5826	9.6097268512239679694	0	1	1708.9450920029776171	0	NaN	NaN	0	1	1	0	1	0
2	2	4	49	67447	2750	9.6097730400506407022	0	1	1171.3160390063421801	0	NaN	NaN	0	1	1	0	1	0
2	2	4	50	61824	4522	9.6098193422658368945	1	1	951.56965900969225913	0	300	317	0	0	0	1	2	0
2	2	4	51	59972	5972	9.6098656362155452371	0	1	865.94505100219976157	0	NaN	NaN	0	1	1	0	1	0
2	2	4	52	21914	8403	9.6099119223654270172	1	1	788.9917819993570447	0	136	NaN	1	1	0	1	2	0
2	2	4	53	53892	742	9.6099582234164699912	1	1	791.2177980033447966	0	46	NaN	1	1	0	1	2	0
2	2	4	54	68658	3350	9.6100045163184404373	0	1	749.02789700718130916	0	NaN	NaN	0	1	1	0	1	0
2	2	4	55	47250	6169	9.6100971008418127894	1	1	790.25716301111970097	0	238	458	1	1	0	1	2	0
2	2	4	56	53859	740	9.6101434013107791543	0	1	1460.5286190053448081	0	NaN	NaN	0	1	1	0	1	0
2	2	4	57	38616	4272	9.6101896973559632897	1	0	1724.353331999736838	0	287	NaN	0	1	1	0	1	0
2	2	4	58	59739	5670	9.6102359909564256668	1	1	953.05593201192095876	0	301	NaN	0	0	0	1	2	0
2	2	4	59	30848	412	9.6102822812972590327	0	1	1054.8227069957647473	0	NaN	NaN	0	1	1	0	1	0
2	2	4	60	27322	7873	9.6103285780409350991	0	1	1663.9000249997479841	0	NaN	NaN	0	1	1	0	1	0
2	2	4	61	22783	282	9.6103748715249821544	0	1	1974.3714510113932192	0	NaN	NaN	0	1	1	0	1	0
2	2	4	62	48250	1218	9.6104211671045050025	1	1	884.08623699797317386	0	173	344	1	1	0	1	2	0
2	2	5	1	21914	8403	9.6129362368956208229	1	1	817.49238399788737297	0	10	147	1	1	0	1	2	0
2	2	5	2	9273	1122	9.6129825356183573604	1	1	1701.8742020009085536	0	312	NaN	0	0	0	1	2	0
2	2	5	3	53859	740	9.6130288207205012441	1	1	643.60542400390841067	0	8	NaN	1	1	0	1	2	0
2	2	5	4	51007	6328	9.6130751221207901835	0	1	2561.7343760095536709	0	NaN	NaN	0	1	1	0	1	0
2	2	5	5	2267	9548	9.6131214066408574581	0	1	1426.2581340008182451	0	NaN	NaN	0	1	1	0	1	0
2	2	5	6	33109	9510	9.6131677147932350636	0	1	1088.3679999969899654	0	NaN	NaN	0	1	1	0	1	0
2	2	5	7	31790	4361	9.6132140033878386021	1	1	736.47963599069043994	0	124	NaN	1	1	0	1	2	0
2	2	5	8	53469	1368	9.6132603096775710583	0	1	1655.4495279997354373	0	NaN	NaN	0	1	1	0	1	0
2	2	5	9	57408	7912	9.6133065912872552872	0	1	1339.1209300025366247	0	NaN	NaN	0	1	1	0	1	0
2	2	5	10	13543	7719	9.6133529002545401454	0	1	1114.1446669935248792	0	NaN	NaN	0	1	1	0	1	0
2	2	5	11	30082	402	9.6134454847779124975	0	1	1690.800316006061621	0	NaN	NaN	0	1	1	0	1	0
2	2	5	12	766	6404	9.6134917663875967264	0	1	1575.6882179994136095	0	NaN	NaN	0	1	1	0	1	0
2	2	5	13	64994	8303	9.6135379581246525049	1	1	779.39142601098865271	0	139	148	1	1	0	1	2	0
2	2	5	14	27198	2937	9.613584257080219686	0	1	1058.6507709958823398	0	NaN	NaN	0	1	1	0	1	0
2	2	5	15	68439	9883	9.6136305521940812469	0	1	1451.0543060023337603	0	NaN	NaN	0	1	1	0	1	0
2	2	5	16	49660	3127	9.6136768386932089925	1	1	802.58683300053235143	0	185	NaN	1	1	0	1	2	0
2	2	5	17	42852	570	9.613723144750110805	1	1	820.766154007287696	0	115	NaN	1	1	0	1	2	0
2	2	5	18	5879	55	9.6137694277567788959	0	1	1313.3704089996172115	0	NaN	NaN	0	1	1	0	1	0
2	2	5	19	27688	4918	9.6138157297391444445	0	1	1392.8292320051696151	0	NaN	NaN	0	1	1	0	1	0
2	2	5	20	1658	7027	9.6138620196143165231	0	1	1426.481421003700234	0	NaN	NaN	0	1	1	0	1	0
2	2	5	21	31482	1905	9.6139546100748702884	0	1	1443.4221659903414547	0	NaN	NaN	0	1	1	0	1	0
2	2	5	22	36188	8442	9.6140009058872237802	0	1	1523.639854000066407	0	NaN	NaN	0	1	1	0	1	0
2	2	5	23	54131	5111	9.6140471941325813532	0	1	1207.6297070016153157	0	NaN	NaN	0	1	1	0	1	0
2	2	5	24	14793	6764	9.6140934898285195231	0	1	1385.5984959955094382	0	NaN	NaN	0	1	1	0	1	0
2	2	5	25	72330	9665	9.6141397813335061073	0	1	1136.9121180032379925	0	NaN	NaN	0	1	1	0	1	0
2	2	5	26	15510	6618	9.6141860829666256905	0	1	1580.7507290010107681	0	NaN	NaN	0	1	1	0	1	0
2	2	5	27	51974	8844	9.6142323719104751945	0	0	1244.47231600061059	0	NaN	NaN	0	0	0	1	2	0
2	2	5	28	41032	5631	9.6142786713317036629	0	1	1292.4811269913334399	0	NaN	NaN	0	1	1	0	1	0
2	2	5	29	26436	349	9.6143249649321660399	0	1	1440.1938319933833554	0	NaN	NaN	0	1	1	0	1	0
2	2	5	30	9442	6574	9.6144175505032762885	0	1	1523.0507209926145151	0	NaN	NaN	0	1	1	0	1	0
2	2	5	31	69768	9972	9.6144638477126136422	1	0	2103.2866200112039223	0	829	NaN	0	1	1	0	1	0
2	2	5	32	56914	6444	9.6145101387519389391	0	1	1565.1561510021565482	0	NaN	NaN	0	1	1	0	1	0
2	2	5	33	32777	2830	9.6145564301405102015	1	1	1470.5063599976710975	0	402	NaN	0	0	0	1	2	0
2	2	5	34	49791	8399	9.6146027313079684973	0	1	1178.5920539987273514	0	NaN	NaN	0	1	1	0	1	0
2	2	5	35	60039	4244	9.6146490240935236216	0	1	1960.1065459864912555	0	NaN	NaN	0	1	1	0	1	0
2	2	5	36	71345	3515	9.6146953187417238951	0	1	919.71011299756355584	0	NaN	NaN	0	1	1	0	1	0
2	2	5	37	37155	7116	9.6147416139720007777	1	1	1437.3494140018010512	0	120	NaN	1	1	0	1	2	0
2	2	5	38	54797	8678	9.6147879053605720401	0	1	2105.7461190066533163	0	NaN	NaN	0	1	1	0	1	0
2	2	5	39	17211	5890	9.6148341969819739461	0	1	1372.3507219983730465	0	NaN	NaN	0	1	1	0	1	0
2	2	5	40	47519	4838	9.6148803981486707926	0	1	1790.5603550025261939	0	NaN	NaN	0	1	1	0	1	0
2	2	5	41	26465	3861	9.614972986513748765	0	1	1339.6529989986447617	0	NaN	NaN	0	1	1	0	1	0
2	2	5	42	8742	3728	9.6150192762725055218	0	1	1532.6855570019688457	0	NaN	NaN	0	1	1	0	1	0
2	2	5	43	1410	7625	9.6150655676610767841	0	1	1166.9530259969178587	0	NaN	NaN	0	1	1	0	1	0
2	2	5	44	14345	6361	9.6151118618436157703	0	0	1172.4186749925138429	0	NaN	NaN	0	0	0	1	2	0
2	2	5	45	8337	4637	9.6151581578887999058	1	0	1602.2206699999514967	0	375	NaN	0	1	1	0	1	0
2	2	5	46	10984	2812	9.6152044521877542138	0	1	1506.0541080019902438	0	NaN	NaN	0	1	1	0	1	0
2	2	5	47	31772	1303	9.6152507521910592914	0	1	1703.2791120000183582	0	NaN	NaN	0	1	1	0	1	0
2	2	5	48	20930	7545	9.6152970428811386228	0	1	1689.8407370026689023	0	NaN	NaN	0	1	1	0	1	0
2	2	5	49	50116	2298	9.6153433339204639196	0	1	1133.5473899962380528	0	NaN	NaN	0	1	1	0	1	0
2	2	5	50	29679	5401	9.615435929736122489	0	1	1284.8962610005401075	0	NaN	NaN	0	1	1	0	1	0
2	2	5	51	11231	9776	9.6154822197277098894	0	1	1553.0984130018623546	0	NaN	NaN	0	1	1	0	1	0
2	2	5	52	42542	1056	9.615528515656478703	0	1	2430.1702310040127486	0	NaN	NaN	0	1	1	0	1	0
2	2	5	53	29083	5995	9.6155748100718483329	1	1	801.49097400135360658	0	107	NaN	1	1	0	1	2	0
2	2	5	54	47030	5431	9.6156211100751534104	0	1	2290.0460509990807623	0	NaN	NaN	0	1	1	0	1	0
2	2	5	55	21797	8593	9.6156673985533416271	0	1	1791.5278000000398606	0	NaN	NaN	0	1	1	0	1	0
2	2	5	56	8860	9719	9.6157136942492797971	0	1	1623.6620449926704168	0	NaN	NaN	0	1	1	0	1	0
2	2	5	57	21570	6148	9.6157599892467260361	1	0	1708.4236869995947927	0	449	NaN	0	1	1	0	1	0
2	2	5	58	20013	2687	9.615806280286051333	0	0	1874.6236620063427836	0	NaN	NaN	0	0	0	1	2	0
2	2	5	59	54895	4187	9.6158525709761306643	1	1	1202.8053419926436618	0	203	NaN	1	1	0	1	2	0
2	2	5	60	54497	3765	9.615898865507915616	0	1	1610.3615660103969276	0	NaN	NaN	0	1	1	0	1	0
2	2	5	61	64298	4431	9.6159451632993295789	0	1	1451.3303279964020476	0	NaN	NaN	0	1	1	0	1	0
2	2	5	62	12000	1069	9.6159914596937596798	1	1	1001.4492569898720831	0	130	407	1	1	0	1	2	0
2	2	5	63	19960	7531	9.6160377535270527005	0	1	1775.7652169966604561	0	NaN	NaN	0	1	1	0	1	0
2	2	6	1	29083	5995	9.6175748953828588128	1	1	872.19694801024161279	0	10	118	1	1	0	1	2	0
2	2	6	2	22819	8152	9.6176212524296715856	0	1	1387.7155630034394562	0	NaN	NaN	0	1	1	0	1	0
2	2	6	3	19889	3854	9.6176674908492714167	0	1	1062.9842190101044253	0	NaN	NaN	0	1	1	0	1	0
2	2	6	4	67170	2311	9.6177138396305963397	0	1	1313.8106780097587034	0	NaN	NaN	0	1	1	0	1	0
2	2	6	5	62320	4893	9.6177600793307647109	1	1	726.11437000159639865	0	142	NaN	1	1	0	1	2	0
2	2	6	6	2643	1470	9.6178064433624967933	0	1	818.68889099860098213	0	NaN	NaN	0	1	1	0	1	0
2	2	6	7	32777	2830	9.6178526589646935463	1	1	902.63158798916265368	0	36	439	1	1	0	1	2	0
2	2	6	8	38818	511	9.6178990339394658804	1	1	1096.8598759936867282	0	550	NaN	0	0	0	1	2	0
2	2	6	9	36008	1066	9.6179452468641102314	0	1	1002.4987569922814146	0	NaN	NaN	0	1	1	0	1	0
2	2	6	10	13476	8504	9.6179915638640522957	0	1	1500.7977890054462478	0	NaN	NaN	0	1	1	0	1	0
2	2	6	11	67170	2311	9.6180378393037244678	1	1	703.44361399475019425	0	6	NaN	1	1	0	1	2	0
2	2	6	12	32756	9040	9.618130433140322566	0	1	872.87978900712914765	0	NaN	NaN	0	1	1	0	1	0
2	2	6	13	56683	8422	9.618176735588349402	0	1	1269.3120170006295666	0	NaN	NaN	0	1	1	0	1	0
2	2	6	14	47519	4838	9.6182230199920013547	1	1	1234.2399189947172999	0	36	NaN	1	1	0	1	2	0
2	2	6	15	58492	7165	9.6182693236041814089	0	1	1024.7847850114339963	0	NaN	NaN	0	1	1	0	1	0
2	2	6	16	4008	4665	9.6183156080078333616	1	1	1372.2837999957846478	0	338	NaN	0	0	0	1	2	0
2	2	6	17	22516	276	9.6183619080111384392	1	1	1111.4614719990640879	0	171	NaN	1	1	0	1	2	0
2	2	6	18	50881	6487	9.6184081960236653686	0	1	892.5780459976522252	0	NaN	NaN	0	1	1	0	1	0
2	2	6	19	35693	8383	9.6184544953284785151	0	0	1788.2567079941509292	0	NaN	NaN	0	0	0	1	2	0
2	2	6	20	13587	4095	9.6185007820604369044	1	1	1055.433239002013579	0	533	NaN	0	0	0	1	2	0
2	2	6	21	47996	7176	9.6185470884665846825	0	1	2180.2372829988598824	0	NaN	NaN	0	1	1	0	1	0
2	2	6	22	49902	5279	9.6186395704280585051	0	1	1741.4157189923571423	0	NaN	NaN	0	1	1	0	1	0
2	2	6	23	26465	3861	9.6186858615837991238	1	1	820.81097099580802023	0	44	NaN	1	1	0	1	2	0
2	2	6	24	60784	7300	9.6187321549514308572	1	0	2047.8141000057803467	0	950	NaN	0	1	1	0	1	0
2	2	6	25	62313	9879	9.6187784528592601418	0	1	1482.2984089987585321	0	NaN	NaN	0	1	1	0	1	0
2	2	6	26	15710	5288	9.6188247472746297717	0	0	1387.4626190081471577	0	NaN	NaN	0	0	0	1	2	0
2	2	6	27	6173	8201	9.6188710320275276899	0	0	1803.6654949974035844	0	NaN	NaN	0	0	0	1	2	0
2	2	6	28	67791	9458	9.6189173342427238822	0	1	714.60233199468348175	0	NaN	NaN	0	1	1	0	1	0
2	2	6	29	51078	700	9.6189636245835572481	0	1	1788.7963749963091686	0	NaN	NaN	0	1	1	0	1	0
2	2	6	30	20930	7545	9.6190099142258986831	1	1	919.96915198978967965	0	44	NaN	1	1	0	1	2	0
2	2	6	31	61672	9753	9.6190562092233449221	0	1	1548.9841970120323822	0	NaN	NaN	0	1	1	0	1	0
2	2	6	32	53262	2981	9.6191025070147588849	0	0	1562.3137339862296358	0	NaN	NaN	0	0	0	1	2	0
2	2	6	33	67170	2311	9.61914881004486233	1	1	1003.2205640018219128	0	21	28	1	1	0	1	2	0
2	2	6	34	13783	1102	9.6192413922399282455	1	1	2124.0727560070808977	0	186	NaN	1	1	0	1	2	0
2	2	6	35	19324	2186	9.6192876888671889901	1	0	1605.9913499921094626	0	475	638	0	1	1	0	1	0
2	2	6	36	42305	5676	9.6193339816527441144	0	1	1201.5959039999870583	0	NaN	NaN	0	1	1	0	1	0
2	2	6	37	21204	2841	9.6193802716443315148	0	1	1047.1641530020860955	0	NaN	NaN	0	1	1	0	1	0
2	2	6	38	39996	9452	9.6194265689700841904	0	1	1533.9481260016327724	0	NaN	NaN	0	1	1	0	1	0
2	2	6	39	13423	6883	9.6194728640839457512	0	1	1082.4143869976978749	0	NaN	NaN	0	1	1	0	1	0
2	2	6	40	53064	5686	9.6195191616425290704	0	1	1189.36191700049676	0	NaN	NaN	0	1	1	0	1	0
2	2	6	41	33833	1448	9.6195654505863785744	0	0	867.19852199894376099	0	NaN	NaN	0	0	0	1	2	0
2	2	6	42	33663	2353	9.6196117467479780316	0	1	1024.5069030061131343	0	NaN	NaN	0	1	1	0	1	0
2	2	6	43	66953	7726	9.6196580410469323397	0	0	2608.8083579961676151	1	NaN	NaN	0	0	1	1	2	0
2	2	6	44	70335	6890	9.6197506304597482085	0	0	2066.4254879957297817	0	NaN	NaN	0	0	0	1	2	0
2	2	6	45	67119	6928	9.6197968270862475038	0	1	1244.4822459947317839	0	NaN	NaN	0	1	1	0	1	0
