SUBJECT	SESSION	RUN	TRIAL	73KID	10KID	TIME	ISOLD	ISCORRECT	RT	CHANGEMIND	MEMORYRECENT	MEMORYFIRST	ISOLDCURRENT	ISCORRECTCURRENT	TOTAL1	TOTAL2	BUTTON	MISSINGDATA
8	1	1	1	46003	626	0.50355891988147050142	0	1	926.29681200196500868	0	NaN	NaN	0	1	1	0	1	0
8	1	1	2	57484	5013	0.50360522489063441753	0	1	659.30428700085030869	0	NaN	NaN	0	1	1	0	1	0
8	1	1	3	41828	4850	0.5036515059182420373	0	1	962.78565899410750717	0	NaN	NaN	0	1	1	0	1	0
8	1	1	4	69686	8823	0.50369781197514384985	0	1	606.46586400252999738	0	NaN	NaN	0	1	1	0	1	0
8	1	1	5	56548	9538	0.5037440968444570899	0	1	658.05632699630223215	0	NaN	NaN	0	1	1	0	1	0
8	1	1	6	23851	6061	0.50379040243569761515	0	1	480.49295899545541033	0	NaN	NaN	0	1	1	0	1	0
8	1	1	7	39892	4421	0.50383668404538184404	0	1	820.1991199966869317	0	NaN	NaN	0	1	1	0	1	0
8	1	1	8	51242	3858	0.50388287694659084082	0	1	547.71840100147528574	0	NaN	NaN	0	1	1	0	1	0
8	1	1	9	37851	8124	0.50392917660064995289	0	1	603.45457000221358612	0	NaN	NaN	0	1	1	0	1	0
8	1	1	10	11940	4843	0.50397547066677361727	0	1	534.90058600436896086	0	NaN	NaN	0	1	1	0	1	0
8	1	1	11	56319	7941	0.50402175600174814463	0	1	502.31742100004339591	0	NaN	NaN	0	1	1	0	1	0
8	1	1	12	20910	4523	0.50406804925296455622	0	1	888.59653200051980093	0	NaN	NaN	0	1	1	0	1	0
8	1	1	13	37466	1070	0.50416064646560698748	0	1	543.82782400352880359	0	NaN	NaN	0	1	1	0	1	0
8	1	1	14	40489	9588	0.50420693994965404272	0	1	505.28716499684378505	0	NaN	NaN	0	1	1	0	1	0
8	1	1	15	34259	4623	0.50425323483068495989	0	1	666.59444700053427368	0	NaN	NaN	0	1	1	0	1	0
8	1	1	16	21548	3185	0.50429952901322394609	0	1	577.89399699686327949	0	NaN	NaN	0	1	1	0	1	0
8	1	1	17	40007	4586	0.50434582342859357595	0	1	707.31778200570261106	0	NaN	NaN	0	1	1	0	1	0
8	1	1	18	69976	1009	0.50439211889170110226	0	1	858.81050299940397963	0	NaN	NaN	0	1	1	0	1	0
8	1	1	19	879	8634	0.50443840888328850269	0	1	813.21105200186138973	0	NaN	NaN	0	1	1	0	1	0
8	1	1	20	7579	9648	0.50448470329865813255	0	1	685.09035600436618552	0	NaN	NaN	0	1	1	0	1	0
8	1	1	21	64882	9425	0.50453099096193909645	0	1	657.29761300462996587	0	NaN	NaN	0	1	1	0	1	0
8	1	1	22	64992	1344	0.50457729271147400141	0	1	602.84406100254273042	0	NaN	NaN	0	1	1	0	1	0
8	1	1	23	54123	7441	0.50466987607069313526	0	1	722.76998499728506431	0	NaN	NaN	0	1	1	0	1	0
8	1	1	24	66060	3902	0.50471617362927645445	0	0	2402.8429649988538586	0	NaN	NaN	0	0	0	1	2	0
8	1	1	25	72499	8795	0.50476246199104934931	0	1	1013.2962650022818707	0	NaN	NaN	0	1	1	0	1	0
8	1	1	26	38500	1840	0.50480876676738262177	0	1	802.33552899881033227	0	NaN	NaN	0	1	1	0	1	0
8	1	1	27	20279	1356	0.5048550580395385623	0	1	1040.3284339990932494	0	NaN	NaN	0	1	1	0	1	0
8	1	1	28	30298	5506	0.50490135361906141043	0	1	627.90053399658063427	0	NaN	NaN	0	1	1	0	1	0
8	1	1	29	48618	666	0.50494763918686658144	0	1	1016.1324049986433238	0	NaN	NaN	0	1	1	0	1	0
8	1	1	30	58177	8240	0.50499393988866358995	0	1	859.51207600010093302	0	NaN	NaN	0	1	1	0	1	0
8	1	1	31	25495	7232	0.50504022883251309395	0	1	1142.3136999947018921	0	NaN	NaN	0	1	1	0	1	0
8	1	1	32	1779	5691	0.50508652860298752785	0	1	992.24825499550206587	0	NaN	NaN	0	1	1	0	1	0
8	1	1	33	34944	6661	0.50513271859381347895	0	1	809.73327600077027455	0	NaN	NaN	0	1	1	0	1	0
8	1	1	34	8842	2400	0.50517901591956615448	0	1	845.79022300022188574	0	NaN	NaN	0	1	1	0	1	0
8	1	1	35	25910	2252	0.50527160800993442535	0	1	632.5920369999948889	0	NaN	NaN	0	1	1	0	1	0
8	1	1	36	44981	612	0.50531790219247341156	0	1	684.92006800079252571	0	NaN	NaN	0	1	1	0	1	0
8	1	1	37	72724	1609	0.50536419602576643229	0	1	614.03889099892694503	0	NaN	NaN	0	1	1	0	1	0
8	1	1	38	31950	3579	0.50541048240847885609	0	1	518.84413000516360626	0	NaN	NaN	0	1	1	0	1	0
8	1	1	39	3887	1703	0.50545678508933633566	0	1	741.88147199311060831	0	NaN	NaN	0	1	1	0	1	0
8	1	1	40	31577	9976	0.50550307799130678177	0	1	702.27653699839720502	0	NaN	NaN	0	1	1	0	1	0
8	1	1	41	14325	5770	0.50554936996195465326	0	1	457.20012600213522092	0	NaN	NaN	0	1	1	0	1	0
8	1	1	42	11606	8748	0.50559566705487668514	0	1	426.28979699657065794	0	NaN	NaN	0	1	1	0	1	0
8	1	1	43	63754	9202	0.5056419523898512125	0	1	704.65268999396357685	0	NaN	NaN	0	1	1	0	1	0
8	1	1	44	10903	3123	0.50568825006484985352	0	1	628.23060899972915649	0	NaN	NaN	0	1	1	0	1	0
8	1	1	45	32626	436	0.50573454820550978184	0	1	645.58281499921577051	0	NaN	NaN	0	1	1	0	1	0
8	1	1	46	40007	4586	0.50582713668700307608	1	1	1402.2229839974897914	0	28	NaN	1	1	0	1	2	0
8	1	1	47	9735	1499	0.50587343133520334959	0	1	702.31117599905701354	0	NaN	NaN	0	1	1	0	1	0
8	1	1	48	1057	2872	0.50591972307302057743	0	1	1011.0986860017874278	0	NaN	NaN	0	1	1	0	1	0
8	1	1	49	17671	9173	0.50596602156292647123	0	1	550.10813000262714922	0	NaN	NaN	0	1	1	0	1	0
8	1	1	50	17772	2665	0.50601231364998966455	0	1	935.91152400040300563	0	NaN	NaN	0	1	1	0	1	0
8	1	1	51	17152	1045	0.5060586119070649147	0	1	635.65781899524154142	0	NaN	NaN	0	1	1	0	1	0
8	1	1	52	20060	1974	0.5061049025971442461	0	1	1328.3365219976985827	0	NaN	NaN	0	1	1	0	1	0
8	1	1	53	18227	2268	0.50615119491703808308	0	1	633.47154199436772615	0	NaN	NaN	0	1	1	0	1	0
8	1	1	54	15628	7771	0.50619748968165367842	0	1	866.13531200418947265	0	NaN	NaN	0	1	1	0	1	0
8	1	1	55	51638	6336	0.50629007781390100718	0	1	644.99107600568095222	0	NaN	NaN	0	1	1	0	1	0
8	1	1	56	53053	727	0.50633637153077870607	0	1	1045.2271909962291829	0	NaN	NaN	0	1	1	0	1	0
8	1	1	57	4931	40	0.5063825629185885191	0	1	630.24659000075189397	0	NaN	NaN	0	1	1	0	1	0
8	1	1	58	47302	6000	0.50642885826528072357	0	1	845.33979099796852097	0	NaN	NaN	0	1	1	0	1	0
8	1	1	59	31668	7046	0.50647515745367854834	0	1	862.45348399825161323	0	NaN	NaN	0	1	1	0	1	0
8	1	1	60	21952	1607	0.5065214475616812706	0	1	925.3565450053429231	0	NaN	NaN	0	1	1	0	1	0
8	1	1	61	47899	2132	0.50656774151138961315	0	1	680.22079799993662164	0	NaN	NaN	0	1	1	0	1	0
8	1	1	62	27166	5352	0.50661404093261808157	0	1	746.91190999874379486	0	NaN	NaN	0	1	1	0	1	0
8	1	1	63	39227	2514	0.50666032650042325258	0	1	1009.9743389946524985	0	NaN	NaN	0	1	1	0	1	0
8	1	2	1	51210	5730	0.50816342979669570923	0	1	846.81182699569035321	0	NaN	NaN	0	1	1	0	1	0
8	1	2	2	10110	4135	0.50820973701775074005	0	1	632.17836200055899099	0	NaN	NaN	0	1	1	0	1	0
8	1	2	3	63928	5169	0.50825601979158818722	0	1	604.97492200374836102	0	NaN	NaN	0	1	1	0	1	0
8	1	2	4	53459	5821	0.50830231758300215006	0	1	584.78571299929171801	0	NaN	NaN	0	1	1	0	1	0
8	1	2	5	25674	8842	0.50834859965834766626	0	1	567.02097200468415394	0	NaN	NaN	0	1	1	0	1	0
8	1	2	6	10110	4135	0.50839489977806806564	1	1	1086.8062409936101176	0	3	NaN	1	1	0	1	2	0
8	1	2	7	58114	4990	0.50844118918757885695	0	1	669.81102099816780537	0	NaN	NaN	0	1	1	0	1	0
8	1	2	8	48922	9955	0.50848748255521059036	0	1	714.75088300212519243	0	NaN	NaN	0	1	1	0	1	0
8	1	2	9	37153	7331	0.50853378395549952984	0	1	827.44812400051159784	0	NaN	NaN	0	1	1	0	1	0
8	1	2	10	3590	3470	0.50858006777707487345	0	1	719.41872999741462991	0	NaN	NaN	0	1	1	0	1	0
8	1	2	11	60886	9913	0.50862637045793235302	0	1	1044.7730740052065812	0	NaN	NaN	0	1	1	0	1	0
8	1	2	12	16777	3207	0.50871895928867161274	0	1	741.6107320023002103	0	NaN	NaN	0	1	1	0	1	0
8	1	2	13	49174	5799	0.50876525416970252991	0	1	622.44287000066833571	0	NaN	NaN	0	1	1	0	1	0
8	1	2	14	23796	4068	0.50881144835148006678	0	1	809.13504400086821988	0	NaN	NaN	0	1	1	0	1	0
8	1	2	15	2878	2204	0.50885774404741823673	0	1	1503.3140710002044216	0	NaN	NaN	0	1	1	0	1	0
8	1	2	16	5038	7081	0.50890403578523546457	0	1	2126.6987670023809187	0	NaN	NaN	0	1	1	0	1	0
8	1	2	17	60051	3632	0.50895033485721796751	0	1	985.95547799777705222	0	NaN	NaN	0	1	1	0	1	0
8	1	2	18	28475	3444	0.50899662880692631006	0	1	650.34409399959258735	0	NaN	NaN	0	1	1	0	1	0
8	1	2	19	71941	2840	0.50904291938059031963	0	1	880.09537899779388681	0	NaN	NaN	0	1	1	0	1	0
8	1	2	20	60709	1538	0.50908921507652848959	0	1	711.63246500509558246	0	NaN	NaN	0	1	1	0	1	0
8	1	2	21	11580	8951	0.50918180204462260008	0	1	756.96644299750914797	0	NaN	NaN	0	1	1	0	1	0
8	1	2	22	6963	8009	0.50922809750773012638	0	1	965.71626299555646256	0	NaN	NaN	0	1	1	0	1	0
8	1	2	23	20602	5772	0.50927439017686992884	0	1	655.83432200219249353	0	NaN	NaN	0	1	1	0	1	0
8	1	2	24	61912	5200	0.50932068412657827139	0	1	1685.4937489988515154	0	NaN	NaN	0	1	1	0	1	0
8	1	2	25	22035	7984	0.50936698075383901596	0	1	886.64295600028708577	0	NaN	NaN	0	1	1	0	1	0
8	1	2	26	59787	9865	0.50941326702013611794	0	1	1016.3616939971689135	0	NaN	NaN	0	1	1	0	1	0
8	1	2	27	57165	7367	0.50945956993382424116	0	1	805.65755499992519617	0	NaN	NaN	0	1	1	0	1	0
8	1	2	28	32626	436	0.50950586458202451468	1	1	1203.7929419966530986	0	45	NaN	1	1	0	1	2	0
8	1	2	29	58691	3014	0.50955215957947075367	0	1	881.78133199835428968	0	NaN	NaN	0	1	1	0	1	0
8	1	2	30	56815	3569	0.50959845236502587795	0	1	865.58553099894197658	0	NaN	NaN	0	1	1	0	1	0
8	1	2	31	66576	6871	0.50969103968236595392	0	1	745.6349130006856285	0	NaN	NaN	0	1	1	0	1	0
8	1	2	32	18704	4263	0.50973733142018318176	0	1	1079.4423309998819605	0	NaN	NaN	0	1	1	0	1	0
8	1	2	33	61596	3694	0.50978362886235117912	0	1	1155.8880589946056716	0	NaN	NaN	0	1	1	0	1	0
8	1	2	34	58946	5322	0.509829913848079741	0	1	1112.7347489964449778	0	NaN	NaN	0	1	1	0	1	0
8	1	2	35	20508	4061	0.50987621094100177288	0	1	883.61111800622893497	0	NaN	NaN	0	1	1	0	1	0
8	1	2	36	72642	7985	0.50992250279523432255	0	1	870.69532199529930949	0	NaN	NaN	0	1	2	0	1	0
8	1	2	37	45819	6041	0.5099688088521361351	0	1	1962.541063992830459	0	NaN	NaN	0	1	1	0	1	0
8	1	2	38	60109	6142	0.51001509418711066246	0	1	1004.2196520007564686	0	NaN	NaN	0	1	1	0	1	0
8	1	2	39	46478	6843	0.5100613950053229928	0	1	856.98981099994853139	0	NaN	NaN	0	1	1	0	1	0
8	1	2	40	1149	7442	0.51010767871048301458	0	1	756.83146899973507971	0	NaN	NaN	0	1	1	0	1	0
8	1	2	41	55564	1108	0.51020017475821077824	0	1	704.59590200334787369	0	NaN	NaN	0	1	1	0	1	0
8	1	2	42	51441	9936	0.51024647417943924665	0	1	821.15003099897876382	0	NaN	NaN	0	1	1	0	1	0
8	1	2	43	64143	2757	0.51029276545159518719	0	1	1203.1042000016896054	0	NaN	NaN	0	1	1	0	1	0
8	1	2	44	55447	9658	0.51033906172960996628	0	1	627.80493799800751731	0	NaN	NaN	0	1	1	0	1	0
8	1	2	45	63928	5169	0.51038535428233444691	1	0	2629.9132849962916225	0	41	NaN	1	0	1	0	1	0
8	1	2	46	52913	3376	0.51043164404109120369	0	1	809.49369799782289192	0	NaN	NaN	0	1	1	0	1	0
8	1	2	47	63060	7287	0.51047793787438422441	0	1	1121.2924499996006489	0	NaN	NaN	0	1	1	0	1	0
8	1	2	48	49358	5363	0.51052423601504415274	0	1	812.19713400059845299	0	NaN	NaN	0	1	1	0	1	0
8	1	2	49	16562	5834	0.51057052402757108212	0	1	803.47897599858697504	0	NaN	NaN	0	1	1	0	1	0
8	1	2	50	36167	6448	0.51061681879218667746	0	1	745.36005499976454303	0	NaN	NaN	0	1	1	0	1	0
8	1	2	51	11460	4186	0.51066312112379819155	0	1	959.25279099901672453	0	NaN	NaN	0	1	1	0	1	0
8	1	2	52	61978	9715	0.51070941518992185593	0	1	1029.7947359940735623	0	NaN	NaN	0	1	1	0	1	0
8	1	2	53	31362	1430	0.51080199831631034613	0	1	1203.1700759980594739	0	NaN	NaN	0	1	1	0	1	0
8	1	2	54	62883	9621	0.51084829727187752724	0	1	991.87090600025840104	0	NaN	NaN	0	1	1	0	1	0
8	1	2	55	48701	7112	0.51089458272326737642	0	1	1582.6083989959442988	0	NaN	NaN	0	1	1	0	1	0
8	1	2	56	61044	9845	0.51094088517129421234	0	1	1516.0152250027749687	0	NaN	NaN	0	1	1	0	1	0
8	1	2	57	60367	7473	0.5109871722524985671	0	1	984.38282999995863065	0	NaN	NaN	0	1	1	0	1	0
8	1	2	58	6432	60	0.51103347388561815023	0	1	1177.7733269991585985	0	NaN	NaN	0	1	1	0	1	0
8	1	2	59	64143	2757	0.51107977062929421663	1	1	1363.9941750006983057	0	15	NaN	1	1	0	1	2	0
8	1	2	60	17557	2704	0.51112606259994208813	0	1	902.49584800039883703	0	NaN	NaN	0	1	1	0	1	0
8	1	2	61	879	8634	0.51117235957644879818	1	1	1019.143391000397969	0	104	NaN	1	1	0	1	2	0
8	1	2	62	10499	4900	0.51121864409651607275	0	1	758.46760199783602729	0	NaN	NaN	0	1	1	0	1	0
8	1	3	1	38460	7336	0.51289138663560152054	0	1	918.51620699890190735	0	NaN	NaN	0	1	1	0	1	0
8	1	3	2	70336	970	0.51293768954928964376	0	0	1755.7085099979303777	0	NaN	NaN	0	0	0	1	2	0
8	1	3	3	7181	4229	0.51298397209029644728	0	0	1602.9928610005299561	0	NaN	NaN	0	0	0	1	2	0
8	1	3	4	68726	3770	0.5130302762845531106	0	1	847.04983100527897477	0	NaN	NaN	0	1	1	0	1	0
8	1	3	5	872	3284	0.51307655998971313238	0	1	942.48143900040304288	0	NaN	NaN	0	1	1	0	1	0
8	1	3	6	25587	6316	0.51312287186738103628	0	1	585.59478599636349827	0	NaN	NaN	0	1	1	0	1	0
8	1	3	7	8271	1266	0.51316915568895637989	0	1	774.05440700385952368	0	NaN	NaN	0	1	1	0	1	0
8	1	3	8	36577	479	0.51321545382961630821	0	1	721.01691999705508351	0	NaN	NaN	0	1	1	0	1	0
8	1	3	9	68567	6277	0.51326174195855855942	0	1	1036.8530119958450086	0	NaN	NaN	0	1	1	0	1	0
8	1	3	10	10982	9754	0.51330804522149264812	0	1	1048.7957180012017488	0	NaN	NaN	0	1	1	0	1	0
8	1	3	11	43891	7300	0.51340062858071178198	0	1	770.14239999698475003	0	NaN	NaN	0	1	1	0	1	0
8	1	3	12	49546	1104	0.51344691007398068905	0	0	2203.9168859992059879	0	NaN	NaN	0	0	0	1	2	0
8	1	3	13	54443	7313	0.51349321519955992699	0	1	1025.9823750020586886	0	NaN	NaN	0	1	1	0	1	0
8	1	3	14	34928	3250	0.51353949960321187973	0	1	2502.6920930031337775	0	NaN	NaN	0	1	1	0	1	0
8	1	3	15	49191	6726	0.51358579553198069334	0	1	1307.7602079938515089	0	NaN	NaN	0	1	1	0	1	0
8	1	3	16	23192	8054	0.51363209460396319628	0	1	820.8401930023683235	0	NaN	NaN	0	1	1	0	1	0
8	1	3	17	59528	7613	0.51367839064914733171	0	1	1255.8879200005321763	0	NaN	NaN	0	1	1	0	1	0
8	1	3	18	24912	6236	0.51372468424960970879	0	1	861.74397899594623595	0	NaN	NaN	0	1	1	0	1	0
8	1	3	19	51739	2259	0.51377097400836646557	0	1	717.44276100071147084	0	NaN	NaN	0	1	1	0	1	0
8	1	3	20	56809	3968	0.51381727086845785379	0	1	742.14693700196221471	0	NaN	NaN	0	1	1	0	1	0
8	1	3	21	62662	2980	0.51386346190702170134	0	1	836.74681999400490895	0	NaN	NaN	0	1	1	0	1	0
8	1	3	22	52427	9718	0.51390975888352841139	0	1	835.09954400506103411	0	NaN	NaN	0	1	1	0	1	0
8	1	3	23	17900	1550	0.51395605399738997221	0	1	775.24141700268955901	0	NaN	NaN	0	1	1	0	1	0
8	1	3	24	62662	2980	0.5140023455023765564	1	1	940.63032899430254474	0	2	NaN	1	1	0	1	2	0
8	1	3	25	17267	6274	0.51409494027029722929	0	1	710.03504899999825284	0	NaN	NaN	0	1	1	0	1	0
8	1	3	26	16796	6666	0.5141412349184975028	0	1	817.96810399828245863	0	NaN	NaN	0	1	1	0	1	0
8	1	3	27	61534	3580	0.51418752444442361593	0	1	652.67805600160500035	0	NaN	NaN	0	1	1	0	1	0
8	1	3	28	57047	791	0.51423381874337792397	0	1	1419.1748719968018122	0	NaN	NaN	0	1	1	0	1	0
8	1	3	29	15628	7771	0.514280113042332232	1	0	979.74678599712206051	0	99	NaN	1	0	1	0	1	0
8	1	3	30	72642	7985	0.51432641211431473494	1	0	942.07373799872584641	0	55	NaN	1	0	1	0	1	0
8	1	3	31	19866	5651	0.51437269779853522778	0	1	648.51146300497930497	0	NaN	NaN	0	1	1	0	1	0
8	1	3	32	7694	4786	0.51441899314522743225	0	1	1002.7231460044276901	0	NaN	NaN	0	1	1	0	1	0
8	1	3	33	19267	5910	0.5144652870949357748	0	1	819.12556000315817073	0	NaN	NaN	0	1	1	0	1	0
8	1	3	34	48811	6588	0.51451158674899488688	0	1	714.57779599586501718	0	NaN	NaN	0	1	1	0	1	0
8	1	3	35	70211	5925	0.51455787860322743654	0	1	1583.4164159969077446	0	NaN	NaN	0	1	1	0	1	0
8	1	3	36	71442	5699	0.51465046941302716732	0	1	690.10613099817419425	0	NaN	NaN	0	1	1	0	1	0
8	1	3	37	35563	3719	0.51469676301348954439	0	1	1103.2393060013419017	0	NaN	NaN	0	1	1	0	1	0
8	1	3	38	54007	5440	0.51474305102601647377	0	1	1066.490976998466067	0	NaN	NaN	0	1	1	0	1	0
8	1	3	39	15105	9470	0.5147893448593094945	0	1	880.24278500233776867	0	NaN	NaN	0	1	1	0	1	0
8	1	3	40	36669	1330	0.51483564171940088272	0	1	761.37681899854214862	0	NaN	NaN	0	1	1	0	1	0
8	1	3	41	46715	8935	0.51488194032572209835	0	1	1045.545865003077779	0	NaN	NaN	0	1	1	0	1	0
8	1	3	42	7660	80	0.51492823217995464802	0	1	1341.5998429991304874	0	NaN	NaN	0	1	1	0	1	0
8	1	3	43	65391	2159	0.5149745292728766799	0	1	1103.1447249988559633	0	NaN	NaN	0	1	1	0	1	0
8	1	3	44	39386	1866	0.51502081542275846004	0	1	1585.2623540049535222	0	NaN	NaN	0	1	1	0	1	0
8	1	3	45	61539	5965	0.51511340565048158169	0	1	1171.2528250063769519	0	NaN	NaN	0	1	1	0	1	0
8	1	3	46	34475	7512	0.51515961077529937029	0	1	802.10818399791605771	0	NaN	NaN	0	1	1	0	1	0
8	1	3	47	47464	4025	0.51520589774008840322	0	1	718.04687700205249712	0	NaN	NaN	0	1	1	0	1	0
8	1	3	48	47464	4025	0.51525219110772013664	1	1	843.28567500051576644	0	0	NaN	1	1	0	1	2	0
8	1	3	49	30374	403	0.51529849309008568525	0	1	2417.8480170012335293	0	NaN	NaN	0	1	1	0	1	0
8	1	3	50	62281	1665	0.51534478564281016588	0	1	1103.3669349999399856	0	NaN	NaN	0	1	1	0	1	0
8	1	3	51	9491	9667	0.51539107633288949728	0	1	759.45251299708615988	0	NaN	NaN	0	1	1	0	1	0
8	1	3	52	25960	340	0.51543737342581152916	0	1	1178.3871699954033829	0	NaN	NaN	0	1	1	0	1	0
8	1	3	53	69979	6692	0.51548367028590291739	0	1	1403.206246999616269	0	NaN	NaN	0	1	1	0	1	0
8	1	3	54	58556	3824	0.51557624840643256903	0	NaN	NaN	NaN	NaN	NaN	0	NaN	0	0	NaN	0
8	1	3	55	63485	1160	0.5156225510872900486	0	1	802.11837199749425054	0	NaN	NaN	0	1	1	0	1	0
8	1	3	56	31668	7046	0.51566884899511933327	1	1	3011.2087450033868663	0	121	NaN	1	1	0	1	2	0
8	1	3	57	69487	7852	0.51571513793896883726	0	1	904.4896369960042648	0	NaN	NaN	0	1	1	0	1	0
8	1	3	58	69767	5291	0.51576143468264490366	0	1	862.0726219960488379	0	NaN	NaN	0	1	1	0	1	0
8	1	3	59	65604	3595	0.51580771931912750006	0	1	959.34496400150237605	0	NaN	NaN	0	1	1	0	1	0
8	1	3	60	8412	2325	0.51585402083583176136	0	1	745.30378500639926642	0	NaN	NaN	0	1	1	0	1	0
8	1	3	61	9560	4285	0.51590031548403203487	0	1	602.58604399859905243	0	NaN	NaN	0	1	1	0	1	0
8	1	3	62	53758	8561	0.51594661269336938858	0	1	741.03934299637330696	0	NaN	NaN	0	1	1	0	1	0
8	1	3	63	58691	3014	0.51599289523437619209	1	0	909.7291969956131652	0	95	NaN	1	0	1	0	1	0
8	1	4	1	30374	403	0.51765985984820872545	1	1	1053.4747029960271902	0	14	NaN	1	1	0	1	2	0
8	1	4	2	44981	612	0.51770615740679204464	1	0	684.58326200197916478	0	153	NaN	1	0	1	0	1	0
8	1	4	3	28535	4687	0.51775244786404073238	0	1	937.0433349977247417	0	NaN	NaN	0	1	1	0	1	0
8	1	4	4	64882	9425	0.51779875229112803936	1	0	926.44950799876824021	0	170	NaN	1	0	1	0	1	0
8	1	4	5	41480	7750	0.51784503471571952105	0	1	902.78977499838219956	0	NaN	NaN	0	1	1	0	1	0
8	1	4	6	58558	3194	0.51789133821148425341	0	0	1717.3135869961697608	0	NaN	NaN	0	0	0	1	2	0
8	1	4	7	62265	2628	0.5179376258747652173	0	1	872.40737200045259669	0	NaN	NaN	0	1	1	0	1	0
8	1	4	8	21353	9722	0.51798393018543720245	0	1	806.1121800055843778	0	NaN	NaN	0	1	1	0	1	0
8	1	4	9	53758	8561	0.51803021004889160395	1	1	948.8441350040375255	0	9	NaN	1	1	0	1	2	0
8	1	4	10	42426	2670	0.518076519132591784	0	1	1005.1062850034213625	0	NaN	NaN	0	1	1	0	1	0
8	1	4	11	69236	5109	0.51816910039633512497	0	1	822.64998000027844682	0	NaN	NaN	0	1	1	0	1	0
8	1	4	12	48198	3457	0.51821538759395480156	0	0	1548.1824570015305653	0	NaN	NaN	0	0	0	1	2	0
8	1	4	13	29038	9972	0.51826168643310666084	0	1	1089.2793290040572174	0	NaN	NaN	0	1	1	0	1	0
8	1	4	14	65415	899	0.51830797363072633743	0	1	893.46621299773687497	0	NaN	NaN	0	1	1	0	1	0
8	1	4	15	16938	5741	0.51835427805781364441	0	1	882.53386599535588175	0	NaN	NaN	0	1	1	0	1	0
8	1	4	16	29128	3831	0.51840057014487683773	0	1	1264.5527980057522655	0	NaN	NaN	0	1	1	0	1	0
8	1	4	17	43711	3799	0.51844686188269406557	0	1	1005.4845160047989339	0	NaN	NaN	0	1	1	0	1	0
8	1	4	18	52700	2517	0.51849315909203141928	0	1	748.01565500092692673	0	NaN	NaN	0	1	1	0	1	0
8	1	4	19	7602	6504	0.51853944279719144106	0	1	724.5563329997821711	0	NaN	NaN	0	1	1	0	1	0
8	1	4	20	70629	3548	0.51863203989341855049	0	1	801.67002300004241988	0	NaN	NaN	0	1	1	0	1	0
8	1	4	21	19628	6399	0.51867833011783659458	0	1	1302.9334730017581023	0	NaN	NaN	0	1	1	0	1	0
8	1	4	22	42376	3095	0.51872462267056107521	0	1	685.23697099590208381	0	NaN	NaN	0	1	1	0	1	0
8	1	4	23	26590	9021	0.51877091801725327969	0	1	843.58621800492983311	0	NaN	NaN	0	1	1	0	1	0
8	1	4	24	50036	9121	0.51881721429526805878	0	1	769.3983339995611459	0	NaN	NaN	0	1	1	0	1	0
8	1	4	25	69487	7852	0.51886350684799253941	1	0	903.33444400312146172	0	30	NaN	1	0	1	0	1	0
8	1	4	26	55564	1108	0.51890970673412084579	1	1	950.39065099990693852	0	109	NaN	1	1	0	1	2	0
8	1	4	27	49139	8441	0.51895599940326064825	0	1	872.91609000385506079	0	NaN	NaN	0	1	1	0	1	0
8	1	4	28	28805	9826	0.51900229556486010551	0	1	886.27630499831866473	0	NaN	NaN	0	1	1	0	1	0
8	1	4	29	12441	7559	0.51904859067872166634	0	1	771.91121999931056052	0	NaN	NaN	0	1	1	0	1	0
8	1	4	30	59438	2880	0.51914117543492466211	0	1	1069.2740840022452176	0	NaN	NaN	0	1	1	0	1	0
8	1	4	31	23404	9949	0.51918746205046772957	0	1	802.75968500063754618	0	NaN	NaN	0	1	1	0	1	0
8	1	4	32	54123	7441	0.51923376193735748529	1	1	1678.2662190016708337	0	196	NaN	1	1	0	1	2	0
8	1	4	33	61696	4751	0.51928006252273917198	0	1	1413.2739650012808852	0	NaN	NaN	0	1	1	0	1	0
8	1	4	34	46468	5679	0.5193263528635725379	0	1	1004.3140970010426827	0	NaN	NaN	0	1	1	0	1	0
8	1	4	35	59787	9865	0.51937263843137770891	1	1	1039.0479580019018613	0	133	NaN	1	1	0	1	2	0
8	1	4	36	67929	1645	0.51941894320771098137	0	1	802.91740599932381883	0	NaN	NaN	0	1	1	0	1	0
8	1	4	37	8271	1266	0.51946523075457662344	1	1	1019.5732569991378114	0	92	NaN	1	1	0	1	2	0
8	1	4	38	70317	1549	0.51951152610126882792	0	1	1205.1944199993158691	0	NaN	NaN	0	1	1	0	1	0
8	1	4	39	7181	4229	0.51955782016739249229	1	1	774.75018700351938605	0	98	NaN	1	1	0	1	2	0
8	1	4	40	10805	9562	0.51960411854088306427	0	1	775.91222100454615429	0	NaN	NaN	0	1	1	0	1	0
8	1	4	41	18224	6187	0.51969670597463846207	0	1	1157.0549690004554577	0	NaN	NaN	0	1	1	0	1	0
8	1	4	42	11606	8748	0.5197430020198225975	1	1	1107.7377990004606545	0	187	NaN	1	1	0	1	2	0
8	1	4	43	14990	8374	0.51978929410688579082	0	1	914.70854699582559988	0	NaN	NaN	0	1	1	0	1	0
8	1	4	44	42172	559	0.5198355833999812603	0	1	1502.6409479978610761	0	NaN	NaN	0	1	1	0	1	0
8	1	4	45	5603	53	0.51988188107497990131	0	1	829.77253400167683139	0	NaN	NaN	0	1	1	0	1	0
8	1	4	46	9036	8043	0.51992817071732133627	0	1	778.92770899779861793	0	NaN	NaN	0	1	1	0	1	0
8	1	4	47	26389	8972	0.51997447188477963209	0	1	667.82170400256291032	0	NaN	NaN	0	1	1	0	1	0
8	1	4	48	46103	5860	0.52002076315693557262	0	1	924.52991600293898955	0	NaN	NaN	0	1	1	0	1	0
8	1	4	49	10170	3756	0.52006705524399876595	0	1	740.01198699988890439	0	NaN	NaN	0	1	1	0	1	0
8	1	4	50	14703	4734	0.5201133552473038435	0	1	903.86329300235956907	0	NaN	NaN	0	1	1	0	1	0
8	1	4	51	11029	8985	0.52015964803285896778	0	1	1505.3786129938089289	0	NaN	NaN	0	1	1	0	1	0
8	1	4	52	70480	5862	0.52020584396086633205	0	1	1372.3301290010567755	0	NaN	NaN	0	1	1	0	1	0
8	1	4	53	47160	1681	0.52029843279160559177	0	1	928.14352700224844739	0	NaN	NaN	0	1	1	0	1	0
8	1	4	54	23192	8054	0.5203447205713018775	1	1	2182.2156619964516722	0	100	NaN	1	1	0	1	2	0
8	1	4	55	2605	1983	0.52039102162234485149	0	1	1433.2106459987699054	0	NaN	NaN	0	1	1	0	1	0
8	1	4	56	41580	7973	0.5204373114975169301	0	1	803.52547400252660736	0	NaN	NaN	0	1	1	0	1	0
8	1	4	57	49954	2469	0.52048360789194703102	0	1	803.02348300028825179	0	NaN	NaN	0	1	1	0	1	0
8	1	4	58	21602	265	0.52052990463562309742	0	1	783.39128899824572727	0	NaN	NaN	0	1	1	0	1	0
8	1	4	59	62303	860	0.52057619462721049786	0	1	786.91345799597911537	0	NaN	NaN	0	1	1	0	1	0
8	1	4	60	67969	3951	0.52062249660957604647	0	1	969.02201700140722096	0	NaN	NaN	0	1	1	0	1	0
8	1	4	61	28475	3444	0.52066877984907478094	1	0	1782.4607880029361695	0	167	NaN	1	0	1	0	1	0
8	1	4	62	5302	45	0.52071508055087178946	0	1	1058.9423540004645474	0	NaN	NaN	0	1	1	0	1	0
8	1	5	1	15493	187	0.52344888146035373211	0	1	1167.7445990062551573	0	NaN	NaN	0	1	1	0	1	0
8	1	5	2	17703	6960	0.52349518542177975178	0	1	725.47953899629646912	0	NaN	NaN	0	1	1	0	1	0
8	1	5	3	71111	9857	0.52354146982543170452	0	1	1410.1656139973783866	0	NaN	NaN	0	1	1	0	1	0
8	1	5	4	49011	9133	0.52358776715118438005	0	1	612.50648600253043696	0	NaN	NaN	0	1	1	0	1	0
8	1	5	5	29751	8620	0.52363405586220324039	0	1	803.13977300102123991	0	NaN	NaN	0	1	1	0	1	0
8	1	5	6	25288	323	0.52368036156985908747	0	1	782.8989929985255003	0	NaN	NaN	0	1	2	0	1	0
8	1	5	7	49548	7974	0.5237266377080231905	0	1	752.69183899945346639	0	NaN	NaN	0	1	1	0	1	0
8	1	5	8	50242	3060	0.5237729465588927269	0	1	728.8675089948810637	0	NaN	NaN	0	1	1	0	1	0
8	1	5	9	11016	3271	0.52381923259235918522	0	1	943.70335800340399146	0	NaN	NaN	0	1	1	0	1	0
8	1	5	10	8362	5081	0.52386553783435374498	0	1	823.49162900209194049	0	NaN	NaN	0	1	1	0	1	0
8	1	5	11	31480	4741	0.52395801851525902748	0	1	720.99140600039390847	0	NaN	NaN	0	1	1	0	1	0
8	1	5	12	12464	1085	0.52400431013666093349	0	1	1030.2630189980845898	0	NaN	NaN	0	1	1	0	1	0
8	1	5	13	11180	6570	0.52405060885939747095	0	1	1736.6342839959543198	0	NaN	NaN	0	1	1	0	1	0
8	1	5	14	14703	4734	0.52409690315835177898	1	1	984.54622799908975139	0	25	NaN	1	1	0	1	2	0
8	1	5	15	21602	265	0.52414319384843111038	1	1	1244.7900640036095865	0	18	NaN	1	1	0	1	2	0
8	1	5	16	62662	2980	0.5241894829086959362	1	1	970.10055999999167398	0	116	119	1	1	0	1	2	0
8	1	5	17	54886	6150	0.52423578535672277212	0	1	1136.6898889973526821	0	NaN	NaN	0	1	1	0	1	0
8	1	5	18	6559	66	0.52428208163473755121	0	1	963.89620999980252236	0	NaN	NaN	0	1	1	0	1	0
8	1	5	19	53406	5550	0.52432836499065160751	0	1	745.265874000324402	0	NaN	NaN	0	1	1	0	1	0
8	1	5	20	27341	6106	0.52437466173432767391	0	1	791.97666399704758078	0	NaN	NaN	0	1	1	0	1	0
8	1	5	21	41580	7973	0.52442095766309648752	1	1	949.24526700197020546	0	26	NaN	1	1	0	1	2	0
8	1	5	22	5590	4401	0.5244672504486516118	0	0	1330.1870419963961467	0	NaN	NaN	0	0	0	1	2	0
8	1	5	23	28175	2727	0.5245598469628021121	0	1	812.72322600125335157	0	NaN	NaN	0	1	1	0	1	0
8	1	5	24	28184	6036	0.52460613986477255821	0	1	934.93469200620893389	0	NaN	NaN	0	1	1	0	1	0
8	1	5	25	610	7741	0.52465242426842451096	0	1	1003.6172839973005466	0	NaN	NaN	0	1	1	0	1	0
8	1	5	26	20513	2387	0.52469872974324971437	0	1	910.59972599759930745	0	NaN	NaN	0	1	1	0	1	0
8	1	5	27	63862	7130	0.52474502020049840212	0	1	726.5773129984154366	0	NaN	NaN	0	1	1	0	1	0
8	1	5	28	15746	6647	0.52479131566360592842	0	1	834.03905799787025899	0	NaN	NaN	0	1	1	0	1	0
8	1	5	29	70211	5925	0.52483760146424174309	1	1	2902.5679100013803691	1	118	NaN	1	1	1	1	2	0
8	1	5	30	60399	3686	0.52488390321377664804	0	1	1036.6978649981319904	0	NaN	NaN	0	1	1	0	1	0
8	1	5	31	70336	970	0.52493019448593258858	1	0	1757.5727959992946126	0	153	NaN	1	0	1	0	1	0
8	1	5	32	16724	201	0.52497648622374981642	0	1	719.67906400095671415	0	NaN	NaN	0	1	1	0	1	0
8	1	5	33	28535	4687	0.5250227850629016757	1	1	1652.1723209953051992	0	91	NaN	1	1	0	1	2	0
8	1	5	34	20513	2387	0.52511537389364093542	1	1	990.29922599584097043	0	7	NaN	1	1	0	2	2	0
8	1	5	35	61861	6349	0.52516157308127731085	0	1	774.32652300194604322	0	NaN	NaN	0	1	1	0	1	0
8	1	5	36	48198	3457	0.52520786679815500975	1	1	902.35635799763258547	0	85	NaN	1	1	0	1	2	0
8	1	5	37	60763	5237	0.5252541607478633523	0	1	771.98947300348663703	0	NaN	NaN	0	1	1	0	1	0
8	1	5	38	60763	5237	0.52530045388266444206	1	1	820.77239200589247048	0	0	NaN	1	1	0	1	2	0
8	1	5	39	63928	5169	0.52534674131311476231	1	1	1474.5349649965646677	0	180	222	1	1	0	1	2	0
8	1	5	40	71793	2284	0.52539304550737142563	0	1	1446.3844900019466877	0	NaN	NaN	0	1	1	0	1	0
8	1	5	41	51574	4210	0.5254393408540636301	0	1	1306.6646990046137944	0	NaN	NaN	0	1	1	0	1	0
8	1	5	42	67997	3597	0.52548563433811068535	0	1	1107.2388050015433691	0	NaN	NaN	0	1	1	0	1	0
8	1	5	43	41894	2768	0.52557821909431368113	0	1	889.02891599718714133	0	NaN	NaN	0	1	1	0	1	0
8	1	5	44	12090	5714	0.5256245174678042531	0	1	772.46897899749455974	0	NaN	NaN	0	1	1	0	1	0
8	1	5	45	69487	7852	0.52567080792505294085	1	1	1828.0805709946434945	0	81	112	1	1	0	1	2	0
8	1	5	46	68616	9788	0.5257170962868258357	0	1	747.67654199968092144	0	NaN	NaN	0	1	1	0	1	0
8	1	5	47	26279	9094	0.52576339547522366047	0	1	1018.9836249992367812	0	NaN	NaN	0	1	1	0	1	0
8	1	5	48	13416	2607	0.52580968034453690052	0	1	1352.9614829967613332	0	NaN	NaN	0	1	1	0	1	0
8	1	5	49	50387	9272	0.52585597604047507048	0	1	853.04054599691880867	0	NaN	NaN	0	1	1	0	1	0
8	1	5	50	21350	5192	0.52590227930340915918	0	0	1202.1141599980182946	0	NaN	NaN	0	0	0	1	2	0
8	1	5	51	1493	7185	0.52594857173971831799	0	1	1285.3259800031082705	0	NaN	NaN	0	1	1	0	1	0
8	1	5	52	59844	6581	0.52599486615508794785	0	1	875.63781799690332264	0	NaN	NaN	0	1	1	0	1	0
8	1	5	53	40310	1492	0.52604116045404225588	0	1	1777.3916029982501641	0	NaN	NaN	0	1	1	0	1	0
8	1	5	54	46911	2196	0.52608745370525866747	0	1	802.36288000014610589	0	NaN	NaN	0	1	1	0	1	0
8	1	5	55	13804	7998	0.52618004160467535257	0	1	1145.549992004816886	0	NaN	NaN	0	1	1	0	1	0
8	1	5	56	40576	531	0.52622632798738777637	0	1	876.66016499861143529	0	NaN	NaN	0	1	1	0	1	0
8	1	5	57	7315	6520	0.52627263113390654325	0	1	830.08133900148095563	0	NaN	NaN	0	1	1	0	1	0
8	1	5	58	39789	3898	0.52631892426870763302	0	1	1122.9425179990357719	0	NaN	NaN	0	1	1	0	1	0
8	1	5	59	38175	9743	0.5263652110006660223	0	1	1452.9005529984715395	0	NaN	NaN	0	1	1	0	1	0
8	1	5	60	48091	2430	0.52641151123680174351	0	1	656.78751499945065007	0	NaN	NaN	0	1	1	0	1	0
8	1	5	61	61596	3694	0.52645771123934537172	1	1	1024.0301550002186559	0	214	NaN	1	1	0	1	2	0
8	1	5	62	70629	3548	0.52650399785488843918	1	0	1003.266161002102308	0	103	NaN	1	0	1	0	1	0
8	1	5	63	4433	1939	0.52655030123423784971	0	1	815.05202300468226895	0	NaN	NaN	0	1	1	0	1	0
8	1	6	1	42273	1129	0.52811763773206621408	0	1	1145.3750590007985011	0	NaN	NaN	0	1	1	0	1	0
8	1	6	2	14804	3996	0.52816393470857292414	0	1	770.64422900002682582	0	NaN	NaN	0	1	1	0	1	0
8	1	6	3	5732	5160	0.52821022120770066977	0	1	730.40658499667188153	0	NaN	NaN	0	1	1	0	1	0
8	1	6	4	34310	2539	0.52825652307365089655	0	1	514.16121700458461419	0	NaN	NaN	0	1	1	0	1	0
8	1	6	5	71890	5155	0.52830281504429876804	0	1	603.29838700272375718	0	NaN	NaN	0	1	1	0	1	0
8	1	6	6	57060	3647	0.52834911085665225983	0	0	1477.6556109936791472	0	NaN	NaN	0	0	0	1	2	0
8	1	6	7	55018	7233	0.52839540352579206228	0	1	820.78533399908337742	0	NaN	NaN	0	1	1	0	1	0
8	1	6	8	20602	5772	0.52844169968739151955	1	1	984.02887699921848252	0	234	NaN	1	1	0	1	2	0
8	1	6	9	42118	5761	0.52848799398634582758	0	1	1124.9712060016463511	0	NaN	NaN	0	1	1	0	1	0
8	1	6	10	42787	9964	0.52853428386151790619	0	1	1540.5502759967930615	0	NaN	NaN	0	1	1	0	1	0
8	1	6	11	17536	3903	0.52858057583216577768	0	1	904.70448000269243494	0	NaN	NaN	0	1	1	0	1	0
8	1	6	12	42125	9657	0.52862686943262815475	0	1	888.59579699783353135	0	NaN	NaN	0	1	1	0	1	0
8	1	6	13	40170	1808	0.52871946536470204592	0	0	2163.7580159949720837	0	NaN	NaN	0	0	0	1	2	0
8	1	6	14	38428	3036	0.52876576024573296309	0	1	729.2664049964514561	0	NaN	NaN	0	1	1	0	1	0
8	1	6	15	2664	9484	0.52881205244921147823	0	1	847.88286399998469278	0	NaN	NaN	0	1	1	0	1	0
8	1	6	16	47464	4025	0.52885834348853677511	1	1	1630.1363120001042262	0	155	156	1	1	0	1	2	0
8	1	6	17	54035	6068	0.52890456782188266516	0	1	808.87144000007538125	0	NaN	NaN	0	1	1	0	1	0
8	1	6	18	38525	5418	0.52895083301700651646	0	1	988.22773799474816769	0	NaN	NaN	0	1	1	0	1	0
8	1	6	19	32288	4005	0.5289971325546503067	0	1	891.25363899802323431	0	NaN	NaN	0	1	1	0	1	0
8	1	6	20	15386	9960	0.52904342673718929291	0	1	1282.6045159963541664	0	NaN	NaN	0	1	1	0	1	0
8	1	6	21	49191	6726	0.52908971940632909536	1	1	1333.5684050034615211	0	193	NaN	1	1	0	1	2	0
8	1	6	22	70385	2504	0.5291360171977430582	0	0	1927.7280110036372207	0	NaN	NaN	0	0	0	1	2	0
8	1	6	23	69802	2735	0.52922860556282103062	0	1	1389.7149969998281449	0	NaN	NaN	0	1	1	0	1	0
8	1	6	24	56887	8174	0.52927489031571894884	0	1	867.53366200719028711	0	NaN	NaN	0	1	1	0	1	0
8	1	6	25	3476	7260	0.52932119136676192284	0	1	772.29163899755803868	0	NaN	NaN	0	1	1	0	1	0
8	1	6	26	27299	5558	0.52936748403590172529	0	1	719.90900599485030398	0	NaN	NaN	0	1	1	0	1	0
8	1	6	27	25403	7780	0.52941377169918268919	0	1	1273.3704089987440966	0	NaN	NaN	0	1	1	0	1	0
8	1	6	28	67346	1014	0.52946007438004016876	0	1	1353.7651520018698648	0	NaN	NaN	0	1	1	0	1	0
8	1	6	29	19180	3638	0.52950636588502675295	0	1	863.429684002767317	0	NaN	NaN	0	1	1	0	1	0
8	1	6	30	46478	6843	0.52955266088247299194	1	1	1132.4635100027080625	0	240	NaN	1	1	0	1	2	0
8	1	6	31	54641	9313	0.52959895995445549488	0	1	1313.628263000282459	0	NaN	NaN	0	1	1	0	1	0
8	1	6	32	38690	1702	0.52964524284470826387	0	0	1758.2321340014459565	0	NaN	NaN	0	0	0	1	2	0
8	1	6	33	45596	616	0.52969154622405767441	0	1	1153.6463070005993359	0	NaN	NaN	0	1	1	0	1	0
8	1	6	34	21379	3640	0.52973783470224589109	0	1	1048.9629540024907328	0	NaN	NaN	0	1	1	0	1	0
8	1	6	35	65573	8318	0.52983042725827544928	0	1	1304.9610399975790642	0	NaN	NaN	0	1	1	0	1	0
8	1	6	36	56047	9017	0.52987672202289104462	0	1	869.51348600268829614	0	NaN	NaN	0	1	1	0	1	0
8	1	6	37	15012	9347	0.52992300782352685928	0	1	869.7882060005213134	0	NaN	NaN	0	1	1	0	1	0
8	1	6	38	18063	5238	0.52996930817607790232	0	0	2103.3491319976747036	0	NaN	NaN	0	0	0	1	2	0
8	1	6	39	17803	6246	0.5300156022422015667	0	1	675.81104999408125877	0	NaN	NaN	0	1	1	0	1	0
8	1	6	40	58558	3194	0.53006189956795424223	1	1	1302.0799439982511103	0	158	NaN	1	1	0	1	2	0
8	1	6	41	53053	727	0.53010818443726748228	1	1	914.55938899889588356	0	297	NaN	1	1	0	1	2	0
8	1	6	42	13873	6311	0.53015438723377883434	0	1	1184.7207969985902309	0	NaN	NaN	0	1	1	0	1	0
8	1	6	43	46715	8935	0.53020067804027348757	1	0	806.31054799596313387	0	189	NaN	1	0	1	0	1	0
8	1	6	44	9918	116	0.53029327164404094219	0	1	838.0027630046242848	0	NaN	NaN	0	1	1	0	1	0
8	1	6	45	63031	2297	0.53033956303261220455	0	1	861.98087600496364757	0	NaN	NaN	0	1	1	0	1	0
8	1	6	46	5723	3293	0.53038586047478020191	0	1	1362.2441609986708499	0	NaN	NaN	0	1	1	0	1	0
8	1	6	47	26599	351	0.53043215547222644091	0	1	854.67097900254884735	0	NaN	NaN	0	1	1	0	1	0
8	1	6	48	42773	2336	0.53047844790853559971	0	1	767.66674200189299881	0	NaN	NaN	0	1	1	0	1	0
8	1	6	49	21602	265	0.53052473568823188543	1	1	848.49912900244817138	0	96	115	1	1	0	1	2	0
8	1	6	50	23404	9949	0.53057103685569018126	1	1	948.28911900549428537	0	143	NaN	1	1	0	1	2	0
8	1	6	51	38525	5418	0.53061733115464448929	1	1	807.43424400134244934	0	32	NaN	1	1	0	1	2	0
8	1	6	52	11835	6017	0.53066362475510686636	0	1	1084.4545180007116869	0	NaN	NaN	0	1	1	0	1	0
8	1	6	53	48407	8280	0.53075621440075337887	0	1	834.60750999802257866	0	NaN	NaN	0	1	1	0	1	0
8	1	6	54	6150	9965	0.53080250509083271027	0	1	902.73350300412857905	0	NaN	NaN	0	1	1	0	1	0
8	1	6	55	23883	8516	0.53084880218375474215	0	1	911.18501700111664832	0	NaN	NaN	0	1	1	0	1	0
8	1	6	56	23192	8054	0.53089509590063244104	1	1	929.21370399562874809	0	126	227	1	1	0	1	2	0
8	1	6	57	8271	1266	0.53094138961751013994	1	1	1126.3931119974586181	0	144	237	1	1	0	1	2	0
8	1	6	58	58009	8093	0.5309876840328797698	0	1	1387.1592639989103191	0	NaN	NaN	0	1	1	0	1	0
8	1	6	59	39869	8498	0.53103397053200751543	0	1	1723.5800839989678934	0	NaN	NaN	0	1	1	0	1	0
8	1	6	60	49954	2469	0.53108027088455855846	1	1	1705.9054249984910712	0	127	NaN	1	1	0	1	2	0
8	1	6	61	60306	830	0.53112656751181930304	0	1	903.34606500255176798	0	NaN	NaN	0	1	1	0	1	0
8	1	6	62	17267	6274	0.5311728563392534852	1	1	1023.1200799971702509	0	224	NaN	1	1	0	1	2	0
8	1	7	1	56887	8174	0.53281628969125449657	1	1	920.75287300394847989	0	38	NaN	1	1	0	1	2	0
8	1	7	2	62246	4615	0.53286261647008359432	0	1	1145.861985998635646	0	NaN	NaN	0	1	1	0	1	0
8	1	7	3	34537	2736	0.53290887561161071062	0	1	1264.5424750007805414	0	NaN	NaN	0	1	1	0	1	0
8	1	7	4	61912	5200	0.5329552103066816926	1	1	1371.1086550028994679	0	291	NaN	1	1	0	1	2	0
8	1	7	5	23014	2330	0.53300146479159593582	0	1	873.29633999615907669	0	NaN	NaN	0	1	1	0	1	0
8	1	7	6	42798	4470	0.53304780367761850357	0	1	904.73052900051698089	0	NaN	NaN	0	1	1	0	1	0
8	1	7	7	23796	4068	0.53309405234176665545	1	0	946.98169399634934962	0	304	NaN	1	0	1	0	1	0
8	1	7	8	48227	5858	0.53314040042459964752	0	0	1455.2855850051855668	0	NaN	NaN	0	0	0	1	2	0
8	1	7	9	60709	1538	0.53318664035759866238	1	1	1302.1513929998036474	0	300	NaN	1	1	0	1	2	0
8	1	7	10	7573	6560	0.53327922930475324392	0	1	2201.629356000921689	1	NaN	NaN	0	1	1	1	1	0
8	1	7	11	72992	8283	0.53332559217233210802	0	1	1050.4090079994057305	0	NaN	NaN	0	1	1	0	1	0
8	1	7	12	5732	5160	0.53337181871756911278	1	0	809.23916699975961819	0	70	NaN	1	0	1	0	1	0
8	1	7	13	5723	3293	0.53341819311026483774	1	1	1115.6395369980600663	0	28	NaN	1	1	0	1	2	0
8	1	7	14	61539	5965	0.53346440696623176336	1	1	1333.0266420016414486	0	218	NaN	1	1	0	1	2	0
8	1	7	15	42529	2408	0.53351078671403229237	0	1	1218.7780019958154298	0	NaN	NaN	0	1	1	0	1	0
8	1	7	16	9491	9667	0.53355699451640248299	1	1	1163.8697549933567643	0	214	NaN	1	1	0	1	2	0
8	1	7	17	39386	1866	0.53360329300630837679	1	1	1201.6014190012356266	0	222	NaN	1	1	0	1	2	0
8	1	7	18	23226	3342	0.53364958369638770819	0	1	866.83584200363839045	0	NaN	NaN	0	1	1	0	1	0
8	1	7	19	67346	1014	0.53369588858913630247	1	1	933.68984900007490069	0	52	NaN	1	1	0	1	2	0
8	1	7	20	61117	7951	0.53378847474232316017	0	0	2080.1900979931815527	0	NaN	NaN	0	0	0	2	2	0
8	1	7	21	27326	4784	0.53383475809823721647	0	1	1043.5435779945692047	0	NaN	NaN	0	1	1	0	1	0
8	1	7	22	4192	5660	0.53388106252532452345	0	1	1716.3610950010479428	0	NaN	NaN	0	1	1	0	1	0
8	1	7	23	25782	8315	0.53392734692897647619	0	0	1270.7122260035248473	0	NaN	NaN	0	0	0	1	2	0
8	1	7	24	48405	1098	0.53397364856209605932	0	1	1572.9395730013493448	0	NaN	NaN	0	1	1	0	1	0
8	1	7	25	64489	1431	0.53401983797084540129	0	1	1085.6042089944821782	0	NaN	NaN	0	1	1	0	1	0
8	1	7	26	48227	5858	0.53406613401602953672	1	1	1027.6847809946048073	0	17	NaN	1	1	0	1	2	0
8	1	7	27	59957	2848	0.53411242703441530466	0	1	1205.2586450008675456	0	NaN	NaN	0	1	1	0	1	0
8	1	7	28	4787	36	0.53415871656034141779	0	1	731.81492600269848481	0	NaN	NaN	0	1	1	0	1	0
8	1	7	29	12891	6866	0.53420501260552555323	0	1	767.5948609976330772	0	NaN	NaN	0	1	1	0	1	0
8	1	7	30	48405	1098	0.53425130108371376991	1	1	993.92249999800696969	0	5	NaN	1	1	0	1	2	0
8	1	7	31	25782	8315	0.53429760015569627285	1	1	816.01889600278809667	0	7	NaN	1	1	0	1	2	0
8	1	7	32	52735	5663	0.53434389049652963877	0	1	1675.3550630019162782	0	NaN	NaN	0	1	1	0	1	0
8	1	7	33	48928	2218	0.53439018991775810719	0	1	858.95749100018292665	0	NaN	NaN	0	1	1	0	1	0
8	1	7	34	48227	5858	0.53448278328869491816	1	1	808.06977999600348994	0	7	25	1	1	0	1	2	0
8	1	7	35	50387	9272	0.53452907316386699677	1	1	1036.5750980054144748	0	110	NaN	1	1	0	1	2	0
8	1	7	36	57428	8216	0.53457536583300679922	0	0	2031.4940829994156957	0	NaN	NaN	0	0	0	1	2	0
8	1	7	37	32962	7520	0.53462166315875947475	0	0	1028.0575919969123788	0	NaN	NaN	0	0	0	1	2	0
8	1	7	38	62086	5919	0.5346679596696048975	0	0	1251.6822910038172267	0	NaN	NaN	0	0	0	1	2	0
8	1	7	39	8855	2451	0.53471425140742212534	0	0	2625.7843150015105493	0	NaN	NaN	0	0	0	1	2	0
8	1	7	40	58786	9575	0.53476054465863853693	0	0	1044.389811999280937	0	NaN	NaN	0	0	0	1	2	0
8	1	7	41	23014	2330	0.53480683371890336275	1	1	1614.2961809964617714	1	35	NaN	1	1	1	1	2	0
8	1	7	42	68400	7310	0.53485313290730118752	0	1	1872.2529110018513165	0	NaN	NaN	0	1	1	0	1	0
8	1	7	43	11141	8175	0.53489942813757807016	0	1	969.03950900014024228	0	NaN	NaN	0	1	1	0	1	0
8	1	7	44	51739	2259	0.53494571230839937925	1	1	2079.4767070037778467	0	274	NaN	1	1	0	1	2	0
8	1	7	45	5590	4401	0.53499200905207544565	1	1	992.13059700559824705	0	147	NaN	1	1	0	1	2	0
8	1	7	46	66060	3902	0.53508460568264126778	1	1	1470.2145030023530126	0	396	NaN	1	1	0	1	2	0
8	1	7	47	39380	9335	0.53513089404441416264	0	1	1253.9957080007297918	0	NaN	NaN	0	1	1	0	1	0
8	1	7	48	57686	2760	0.53517719299998134375	0	1	1935.1660629981779493	0	NaN	NaN	0	1	1	0	1	0
8	1	7	49	11835	6017	0.53522348636761307716	1	1	1031.8441559938946739	0	58	NaN	1	1	0	1	2	0
8	1	7	50	18025	8170	0.53526968287769705057	0	1	1083.206333001726307	0	NaN	NaN	0	1	1	0	1	0
8	1	7	51	72936	5262	0.53531597647815942764	0	0	2204.3099990041810088	0	NaN	NaN	0	0	0	1	2	0
8	1	7	52	72936	5262	0.53536226984579116106	1	1	903.39502400456694886	0	0	NaN	1	1	0	1	2	0
8	1	7	53	42773	2336	0.535408568917773664	1	1	1203.2187730001169257	0	66	NaN	1	1	0	1	2	0
8	1	7	54	42568	3862	0.53545486088842153549	0	1	2035.2188229953753762	0	NaN	NaN	0	1	1	0	1	0
8	1	7	55	27771	8482	0.53554744436405599117	0	1	1202.4063219942036085	0	NaN	NaN	0	1	1	0	1	0
8	1	7	56	19363	9525	0.53559374285396188498	0	NaN	NaN	NaN	NaN	NaN	0	NaN	0	0	NaN	0
8	1	7	57	35473	3450	0.53564004087820649147	0	0	2019.052560004638508	0	NaN	NaN	0	0	0	1	2	0
8	1	7	58	69979	6692	0.53568632563110440969	1	1	2084.4016200062469579	0	254	NaN	1	1	0	1	2	0
8	1	7	59	19182	230	0.53573262621648609638	0	1	1933.1018189986934885	0	NaN	NaN	0	1	1	0	1	0
8	1	7	60	5822	5967	0.53577891970053315163	0	1	2362.3521440022159368	0	NaN	NaN	0	1	1	0	1	0
8	1	7	61	66031	7856	0.53582521888893097639	0	1	1148.3089159955852665	0	NaN	NaN	0	1	1	0	1	0
8	1	7	62	2268	8586	0.53587150538805872202	0	1	1103.6822640016907826	0	NaN	NaN	0	1	1	0	1	0
8	1	7	63	63862	7130	0.5359177981736138463	1	1	1901.9437399983871728	1	160	NaN	1	1	1	1	2	0
8	1	8	1	63955	8109	0.53766172332689166069	0	1	1123.6576960000093095	0	NaN	NaN	0	1	1	0	1	0
8	1	8	2	6559	66	0.5377080175094306469	1	1	1139.8483830053010024	0	171	NaN	1	1	0	1	2	0
8	1	8	3	72081	992	0.5377543099457398057	0	1	1129.7651709974161349	0	NaN	NaN	0	1	1	0	1	0
8	1	8	4	9583	2986	0.53780059947166591883	0	1	2103.2999160015606321	0	NaN	NaN	0	1	1	0	1	0
8	1	8	5	25644	1192	0.53784689644817262888	0	1	1038.0963470015558414	0	NaN	NaN	0	1	1	0	1	0
8	1	8	6	22895	5568	0.53789318283088505268	0	0	2183.929409999109339	0	NaN	NaN	0	0	0	1	2	0
8	1	8	7	45054	2203	0.53793948621023446321	0	1	1514.1419050050899386	0	NaN	NaN	0	1	1	0	1	0
8	1	8	8	1493	7185	0.53798577864654362202	1	1	1572.6566220037057064	0	144	NaN	1	1	0	1	2	0
8	1	8	9	5408	4001	0.53803207422606647015	0	1	1391.6596719936933368	0	NaN	NaN	0	1	1	0	1	0
8	1	8	10	9560	4285	0.53812465490773320198	1	1	1968.3660559967393056	0	261	NaN	1	1	0	1	2	0
8	1	8	11	36068	475	0.53817095689009875059	0	1	977.71712200483307242	0	NaN	NaN	0	1	1	0	1	0
8	1	8	12	38460	7336	0.53821724478621035814	1	0	1369.7752459993353114	0	323	NaN	1	0	1	0	1	0
8	1	8	13	42313	1800	0.53826354339253157377	0	1	2101.7939540033694357	0	NaN	NaN	0	1	1	0	1	0
8	1	8	14	50036	9121	0.53830983326770365238	1	1	990.30617799871833995	0	239	NaN	1	1	0	1	2	0
8	1	8	15	22595	7428	0.53835612628608942032	0	1	1076.6625089963781647	0	NaN	NaN	0	1	1	0	1	0
8	1	8	16	52735	5663	0.53840242361184209585	1	1	1187.0381469998392276	0	46	NaN	1	1	0	1	2	0
8	1	8	17	10039	6579	0.53844871930778026581	0	1	924.83139799878699705	0	NaN	NaN	0	1	1	0	1	0
8	1	8	18	4768	7917	0.53849501488730311394	0	1	1617.4940929995500483	0	NaN	NaN	0	1	1	0	1	0
8	1	8	19	10170	3756	0.53854130720719695091	1	1	2182.8349510033149272	1	219	NaN	1	1	1	1	2	0
8	1	8	20	27341	6106	0.5386338972020894289	1	1	1263.05874899844639	0	187	NaN	1	1	0	1	2	0
8	1	8	21	28037	2186	0.53868018731009215117	0	1	1278.19591300067259	0	NaN	NaN	0	1	1	0	1	0
8	1	8	22	62246	4615	0.53872648207470774651	1	1	1589.4807929944363423	0	82	NaN	1	1	0	2	2	0
8	1	8	23	35558	4306	0.53877278463914990425	0	1	1031.1532510022516362	0	NaN	NaN	0	1	1	0	1	0
8	1	8	24	2370	5523	0.53881906927563250065	0	1	1492.2129449987551197	0	NaN	NaN	0	1	1	0	1	0
8	1	8	25	49548	7974	0.53886536974459886551	1	0	875.89189400023315102	0	205	NaN	1	0	1	0	1	0
8	1	8	26	49603	1196	0.53891166637185961008	0	1	928.01534300087951124	0	NaN	NaN	0	1	1	0	1	0
8	1	8	27	52427	9718	0.53895785834174603224	1	1	1254.1238630001316778	0	317	NaN	1	1	0	1	2	0
8	1	8	28	43847	9244	0.53900414705276489258	0	1	1704.8322529954020865	0	NaN	NaN	0	1	1	0	1	0
8	1	8	29	32434	2604	0.5390504499664530158	0	1	1426.022995998209808	0	NaN	NaN	0	1	1	0	1	0
8	1	8	30	53575	4793	0.53909674589522182941	0	1	948.86085199686931446	0	NaN	NaN	0	1	1	0	1	0
8	1	8	31	71754	988	0.53918932797387242317	0	1	1209.3873030025861226	0	NaN	NaN	0	1	1	0	1	0
8	1	8	32	36672	5894	0.53923562343697994947	0	0	2526.9878629987942986	0	NaN	NaN	0	0	0	1	2	0
8	1	8	33	54219	1732	0.53928192390594631433	0	1	1454.9250149939325638	0	NaN	NaN	0	1	1	0	1	0
8	1	8	34	7409	6066	0.53932821808848530054	0	1	1425.9785100002773106	0	NaN	NaN	0	1	1	0	1	0
8	1	8	35	9541	7020	0.5393745034234598279	0	1	1085.0056209965259768	0	NaN	NaN	0	1	1	0	1	0
8	1	8	36	20070	9798	0.53942079574335366488	0	1	846.38559099403209984	0	NaN	NaN	0	1	1	0	1	0
8	1	8	37	29020	1771	0.53946709679439663887	0	1	1610.0254529956146143	0	NaN	NaN	0	1	1	0	1	0
8	1	8	38	31709	5382	0.53951339388731867075	0	1	853.72254299727501348	0	NaN	NaN	0	1	1	0	1	0
8	1	8	39	42600	8917	0.53955968574155122042	0	1	856.39630199875682592	0	NaN	NaN	0	1	1	0	1	0
8	1	8	40	13873	6311	0.53960597887635231018	1	1	2175.9282480052206665	0	122	NaN	1	1	0	1	2	0
8	1	8	41	7253	5514	0.53965227375738322735	0	1	957.14915300050051883	0	NaN	NaN	0	1	1	0	1	0
8	1	8	42	10778	3924	0.53974485478829592466	0	1	990.65749100554967299	0	NaN	NaN	0	1	1	0	1	0
8	1	8	43	32434	2604	0.53979115618858486414	1	1	938.25878600182477385	0	13	NaN	1	1	0	1	2	0
8	1	8	44	25644	1192	0.53983745048753917217	1	1	1046.6598560014972463	0	38	NaN	1	1	0	1	2	0
8	1	8	45	67508	2755	0.53988374292384833097	0	1	1265.8546349994139746	0	NaN	NaN	0	1	1	0	1	0
8	1	8	46	1361	9761	0.5399300337303429842	0	1	1478.0869880050886422	0	NaN	NaN	0	1	1	0	1	0
8	1	8	47	59491	1968	0.539976332220248878	0	1	881.01489900145679712	0	NaN	NaN	0	1	1	0	1	0
8	1	8	48	12441	7559	0.54002262791618704796	1	1	1506.6004580003209412	1	268	NaN	1	1	1	1	2	0
8	1	8	49	18611	1551	0.54006891103927046061	0	1	835.80668299691751599	0	NaN	NaN	0	1	1	0	1	0
8	1	8	50	16796	6666	0.54011521546635776758	1	1	1214.2288770046434365	0	336	NaN	1	1	0	1	2	0
8	1	8	51	18025	8170	0.5401615045266225934	1	1	1073.102611000649631	0	63	NaN	1	1	0	1	2	0
8	1	8	52	10170	3756	0.54020779870916157961	1	1	1078.5699490006663837	0	32	252	1	1	0	1	2	0
8	1	8	53	59813	2262	0.54025402339175343513	0	1	2100.9136049979133531	0	NaN	NaN	0	1	1	0	1	0
8	1	8	54	27326	4784	0.54030028637498617172	1	1	1045.3474699970684014	0	95	NaN	1	1	0	1	2	0
8	1	8	55	12090	5714	0.54039288160856813192	1	1	2041.9867950040497817	1	198	NaN	1	1	1	1	2	0
8	1	8	56	55564	1108	0.54043917218223214149	1	1	959.25235599861480296	0	279	389	1	1	0	1	2	0
8	1	8	57	14910	1224	0.54048547497950494289	0	1	1462.5798709967057221	0	NaN	NaN	0	1	1	0	1	0
8	1	8	58	65406	9934	0.54053176147863268852	0	1	1020.8221920038340613	0	NaN	NaN	0	1	1	0	1	0
8	1	8	59	20038	1317	0.54057805170305073261	0	1	1028.8373859948478639	0	NaN	NaN	0	1	1	0	1	0
8	1	8	60	58145	805	0.54062435298692435026	0	1	1003.293540001322981	0	NaN	NaN	0	1	1	0	1	0
8	1	8	61	29030	5274	0.54067064018454402685	0	1	802.24793300294550136	0	NaN	NaN	0	1	1	0	1	0
8	1	8	62	25021	5350	0.54071693925652652979	0	1	704.29881200107047334	0	NaN	NaN	0	1	1	0	1	0
8	1	9	1	59813	2262	0.54314000857993960381	1	1	1005.3988490035408176	0	9	NaN	1	1	0	1	2	0
8	1	9	2	17803	6246	0.54318631289061158895	1	0	1202.4471370023093186	0	149	NaN	1	0	1	0	1	0
8	1	9	3	50387	9272	0.54323259647935628891	1	1	923.29955800232710317	0	92	203	1	1	0	1	2	0
8	1	9	4	31480	4741	0.5432788945036008954	1	1	1632.0932609960436821	0	242	NaN	1	1	0	1	2	0
8	1	9	5	11943	145	0.54332517716102302074	0	1	1187.1138069982407615	0	NaN	NaN	0	1	1	0	1	0
8	1	9	6	16484	6367	0.54337148170452564955	0	1	1392.842258996097371	0	NaN	NaN	0	1	1	0	1	0
8	1	9	7	70629	3548	0.5434177739080041647	1	1	832.13487299508415163	0	194	298	1	1	0	1	2	0
8	1	9	8	14049	2752	0.543464075424708426	0	1	909.83174300345126539	0	NaN	NaN	0	1	1	0	1	0
8	1	9	9	19182	230	0.54351035482250154018	1	1	784.68579900072654709	0	74	NaN	1	1	0	1	2	0
8	1	9	10	15552	9922	0.54355665971525013447	0	1	1825.8608299947809428	0	NaN	NaN	0	1	1	0	1	0
8	1	9	11	55630	5889	0.543602950987406075	0	1	849.88651399908121675	0	NaN	NaN	0	1	1	0	1	0
8	1	9	12	63490	2377	0.54364924482069909573	0	1	810.98626599850831553	0	NaN	NaN	0	1	1	0	1	0
8	1	9	13	40310	1492	0.54369553807191550732	1	1	1429.000521995476447	0	209	NaN	1	1	0	1	2	0
8	1	9	14	58558	3194	0.54378812748473137617	1	1	2001.5566739966743626	0	160	319	1	1	0	1	2	0
8	1	9	15	69167	1899	0.54383441922254860401	0	1	1759.2564939986914396	0	NaN	NaN	0	1	1	0	1	0
8	1	9	16	31892	9049	0.54388071363791823387	0	1	1488.0050089996075258	0	NaN	NaN	0	1	1	0	1	0
8	1	9	17	8362	5081	0.54392701608594506979	1	1	1104.9701980009558611	0	256	NaN	1	1	0	1	2	0
8	1	9	18	56887	8174	0.54397330211941152811	1	1	1185.6465430028038099	0	141	180	1	1	0	1	2	0
8	1	9	19	36899	1624	0.54401949245948344469	0	1	1059.2749499992351048	0	NaN	NaN	0	1	1	0	1	0
8	1	9	20	38818	511	0.54406579129863530397	0	1	2203.2365889972425066	0	NaN	NaN	0	1	1	0	1	0
8	1	9	21	31945	4420	0.5441120803589001298	0	1	988.03325700282584876	0	NaN	NaN	0	1	1	0	1	0
8	1	9	22	35053	5745	0.54415837407577782869	0	1	828.77313700009835884	0	NaN	NaN	0	1	1	0	1	0
8	1	9	23	48843	3492	0.54420466860756278038	0	1	1503.1490689943893813	0	NaN	NaN	0	1	1	0	1	0
8	1	9	24	66490	919	0.54425096313934773207	0	1	1178.6787620003451593	0	NaN	NaN	0	1	1	0	1	0
8	1	9	25	8311	5733	0.54434356209821999073	0	1	802.52311300137080252	0	NaN	NaN	0	1	1	0	1	0
8	1	9	26	34569	8542	0.54438985278829932213	0	1	801.78308399626985192	0	NaN	NaN	0	1	1	0	1	0
8	1	9	27	461	2220	0.54443614406045526266	0	1	1376.3412259941105731	0	NaN	NaN	0	1	1	0	1	0
8	1	9	28	71233	984	0.54448244557715952396	0	1	1303.0979629984358326	0	NaN	NaN	0	1	1	0	1	0
8	1	9	29	8546	7057	0.54452872625552117825	0	1	2206.4061260025482625	0	NaN	NaN	0	1	1	0	1	0
8	1	9	30	5823	5896	0.54457502823788672686	0	1	1117.7363619935931638	0	NaN	NaN	0	1	1	0	1	0
8	1	9	31	65970	7390	0.54462131450418382883	0	1	2259.0673560043796897	0	NaN	NaN	0	1	1	0	1	0
8	1	9	32	55733	5139	0.54466761182993650436	0	1	1131.7297200002940372	0	NaN	NaN	0	1	1	0	1	0
8	1	9	33	35238	2320	0.54471391136758029461	0	1	2503.2928690052358434	0	NaN	NaN	0	1	1	0	1	0
8	1	9	34	17632	6169	0.54476020648144185543	0	1	780.05448799376608804	0	NaN	NaN	0	1	1	0	1	0
8	1	9	35	20910	4523	0.54480650217738002539	1	NaN	NaN	NaN	522	NaN	1	NaN	0	0	NaN	0
8	1	9	36	42909	7240	0.54489909217227250338	0	1	1517.3693889955757186	0	NaN	NaN	0	1	1	0	1	0
8	1	9	37	62975	6069	0.54494538216385990381	0	1	968.97282199643086642	0	NaN	NaN	0	1	1	0	1	0
8	1	9	38	11534	6817	0.54499167751055210829	0	1	902.73005199560429901	0	NaN	NaN	0	1	1	0	1	0
8	1	9	39	35238	2320	0.54503796785138547421	1	1	1261.0743449986330234	0	5	NaN	1	1	0	1	2	0
8	1	9	40	67969	3951	0.54508425702806562185	1	1	1075.2396440002485178	0	291	NaN	1	1	0	1	2	0
8	1	9	41	32786	7568	0.54513055924326181412	0	1	724.44358799839392304	0	NaN	NaN	0	1	1	0	1	0
8	1	9	42	21261	7447	0.54517684516031295061	0	1	1623.435463996429462	0	NaN	NaN	0	1	1	0	1	0
8	1	9	43	21851	6540	0.54522314760833978653	0	1	848.64262600603979081	0	NaN	NaN	0	1	1	0	1	0
8	1	9	44	16565	2255	0.5452694334089756012	0	1	3039.4059649988776073	0	NaN	NaN	0	1	1	0	1	0
8	1	9	45	36399	9088	0.54536193283274769783	0	1	1709.494130001985468	0	NaN	NaN	0	1	1	0	1	0
8	1	9	46	68089	9124	0.54540823190473020077	0	1	1142.7536780029186048	0	NaN	NaN	0	1	1	0	1	0
8	1	9	47	5723	3293	0.54545452236197888851	1	1	871.49616300303023309	0	158	187	1	1	0	1	2	0
8	1	9	48	59908	2821	0.54550081642810255289	0	1	1177.2425129965995438	0	NaN	NaN	0	1	1	0	1	0
8	1	9	49	4284	4095	0.5455471080495044589	0	1	1060.1413719996344298	0	NaN	NaN	0	1	1	0	1	0
8	1	9	50	61696	4751	0.54559340362902730703	1	1	1137.7807889948599041	0	328	NaN	1	1	0	1	2	0
8	1	9	51	67508	2755	0.54563970211893320084	1	1	1960.3604609947069548	0	67	NaN	1	1	0	1	2	0
8	1	9	52	24131	7655	0.54568598559126257896	0	1	1460.8688419975806028	0	NaN	NaN	0	1	1	0	1	0
8	1	9	53	24751	3807	0.54573228664230555296	0	1	2902.3187519997009076	0	NaN	NaN	0	1	1	0	1	0
8	1	9	54	48198	3457	0.54577857255935668945	1	1	902.81204799975967035	0	267	353	1	1	0	1	2	0
8	1	9	55	63955	8109	0.54587116418406367302	1	0	1091.7660730046918616	0	115	NaN	1	0	1	0	1	0
8	1	9	56	16601	6054	0.54591746570076793432	0	1	1202.2685629999614321	0	NaN	NaN	0	1	1	0	1	0
8	1	9	57	64120	9508	0.54596375615801662207	0	1	1112.8564389946404845	0	NaN	NaN	0	1	1	0	1	0
8	1	9	58	66948	3768	0.54601004382129758596	0	1	778.55235199967864901	0	NaN	NaN	0	1	1	0	1	0
8	1	9	59	48331	6410	0.546056344173848629	0	1	1022.9426120058633387	0	NaN	NaN	0	1	1	0	1	0
8	1	9	60	62415	2328	0.54610264103394001722	0	0	1621.144642005674541	0	NaN	NaN	0	0	0	1	2	0
8	1	9	61	24751	3807	0.54614893475081771612	1	1	1429.6257169989985414	0	7	NaN	1	1	0	1	2	0
8	1	9	62	55082	7697	0.54619522939901798964	0	1	1405.6931540035293438	0	NaN	NaN	0	1	1	0	1	0
8	1	9	63	11385	8816	0.54624152032192796469	0	1	1672.7151499944739044	0	NaN	NaN	0	1	1	0	1	0
8	1	10	1	28475	3444	0.5478882265742868185	1	1	1154.0590989970951341	0	314	482	1	1	0	1	2	0
8	1	10	2	24594	7744	0.5479345319326967001	0	1	1276.5417660048115067	0	NaN	NaN	0	1	1	0	1	0
8	1	10	3	27341	6106	0.54798081412445753813	1	1	1184.5673479983815923	0	107	295	1	1	0	1	2	0
8	1	10	4	44588	1126	0.54802712262608110905	0	1	1966.4412700003595091	0	NaN	NaN	0	1	1	0	1	0
8	1	10	5	4178	7339	0.54807340190745890141	0	1	1243.5107139972387813	0	NaN	NaN	0	1	1	0	1	0
8	1	10	6	70140	2913	0.54811971366871148348	0	1	1364.879079999809619	0	NaN	NaN	0	1	1	0	1	0
8	1	10	7	59899	7572	0.54816599644254893064	0	1	803.16403000324498862	0	NaN	NaN	0	1	1	0	1	0
8	1	10	8	23883	8516	0.54821229784283787012	1	0	863.40041000221390277	0	202	NaN	1	0	1	0	1	0
8	1	10	9	58913	6139	0.54825858341064304113	0	1	602.31276600097771734	0	NaN	NaN	0	1	1	0	1	0
8	1	10	10	63004	9261	0.5483511642087250948	0	1	686.91944900638191029	0	NaN	NaN	0	1	1	0	1	0
8	1	10	11	25782	8315	0.54839747131336480379	1	1	930.96341400087112561	0	167	175	1	1	0	1	2	0
8	1	10	12	3627	14	0.54844375594984740019	0	1	1326.0738200042396784	0	NaN	NaN	0	1	1	0	1	0
8	1	10	13	4192	5660	0.5484900561859831214	1	1	1254.6836960027576424	0	178	NaN	1	1	0	1	2	0
8	1	10	14	69979	6692	0.54853633907623589039	1	1	945.15099500131327659	0	143	398	1	1	0	1	2	0
8	1	10	15	27949	4211	0.54858265281654894352	0	1	1747.6685580040793866	0	NaN	NaN	0	1	1	0	1	0
8	1	10	16	56597	9571	0.5486289347754791379	0	1	1101.815213005465921	0	NaN	NaN	0	1	1	0	1	0
8	1	10	17	12116	9570	0.54867523617576807737	0	1	1575.0659390032524243	0	NaN	NaN	0	1	1	0	1	0
8	1	10	18	70905	4400	0.54872151813469827175	0	1	835.88528700056485832	0	NaN	NaN	0	1	1	0	1	0
8	1	10	19	2801	8200	0.54876781953498721123	0	0	1582.7198830011184327	0	NaN	NaN	0	0	0	1	2	0
8	1	10	20	67400	5345	0.54881410649977624416	0	1	1866.9197580020409077	0	NaN	NaN	0	1	1	0	1	0
8	1	10	21	19796	4585	0.548906699288636446	0	1	1390.3341680052108131	0	NaN	NaN	0	1	1	0	1	0
8	1	10	22	8362	5081	0.54895300825592130423	1	1	901.10621199710294604	0	67	324	1	1	0	1	2	0
8	1	10	23	53223	7247	0.54899928753729909658	0	1	2043.355527006497141	0	NaN	NaN	0	1	1	0	1	0
8	1	10	24	40664	5960	0.54904547985643148422	0	1	1674.4861000042874366	0	NaN	NaN	0	1	1	0	1	0
8	1	10	25	46478	6843	0.54909178009256720543	1	1	867.2002079983940348	0	244	485	1	1	0	1	2	0
8	1	10	26	61311	2726	0.54913806554395705462	0	1	1742.6564349952968769	0	NaN	NaN	0	1	1	0	1	0
8	1	10	27	9560	4285	0.54918436356820166111	1	1	930.58758300321642309	0	141	403	1	1	0	1	2	0
8	1	10	28	19467	7449	0.54923065355978906155	0	1	1533.2868360055726953	0	NaN	NaN	0	1	1	0	1	0
8	1	10	29	14339	3909	0.54927695612423121929	0	1	1471.0880509956041351	0	NaN	NaN	0	1	1	0	1	0
8	1	10	30	49890	6194	0.5493695354089140892	0	1	1153.1132219970459118	0	NaN	NaN	0	1	1	0	1	0
8	1	10	31	52913	3376	0.54941583448089659214	1	0	714.18715099571272731	0	484	NaN	1	0	1	0	1	0
8	1	10	32	35596	3500	0.54946213006041944027	0	1	754.46204800391569734	0	NaN	NaN	0	1	1	0	1	0
8	1	10	33	24709	6752	0.54950842040125280619	0	1	1502.757435999228619	0	NaN	NaN	0	1	1	0	1	0
8	1	10	34	59511	4739	0.54955472552683204412	0	1	1716.8346789985662326	0	NaN	NaN	0	1	1	0	1	0
8	1	10	35	70029	3456	0.54960101586766541004	0	1	781.22751099726883695	0	NaN	NaN	0	1	1	0	1	0
8	1	10	36	19182	230	0.54964730213396251202	1	1	904.4440650031901896	0	89	164	1	1	0	1	2	0
8	1	10	37	45596	616	0.54969360423274338245	1	0	2362.2383270048885606	0	253	NaN	1	0	1	0	1	0
8	1	10	38	14529	173	0.54973990051075816154	0	1	1877.2352250016410835	1	NaN	NaN	0	1	1	1	1	0
8	1	10	39	21985	2163	0.54978619259782135487	0	1	1317.6290650008013472	0	NaN	NaN	0	1	1	0	1	0
8	1	10	40	42825	9008	0.54987878166139125824	0	1	962.17626800353173167	0	NaN	NaN	0	1	1	0	1	0
8	1	10	41	15203	4465	0.54992507398128509521	0	1	744.65087400312768295	0	NaN	NaN	0	1	1	0	1	0
8	1	10	42	67241	7198	0.54997136944439262152	0	1	1063.9229899970814586	0	NaN	NaN	0	1	1	0	1	0
8	1	10	43	53959	5817	0.55001766188070178032	0	NaN	NaN	NaN	NaN	NaN	0	NaN	0	0	NaN	0
8	1	10	44	71216	6148	0.55006395722739398479	0	1	822.50542299880180508	0	NaN	NaN	0	1	1	0	1	0
8	1	10	45	5136	4356	0.55011025024577975273	0	1	1193.1343479955103248	0	NaN	NaN	0	1	1	0	1	0
8	1	10	46	11460	4186	0.55015653884038329124	1	1	1018.3289760025218129	0	494	NaN	1	1	0	1	2	0
8	1	10	47	3887	1703	0.55020283954218029976	1	0	1507.3224230000050738	0	570	NaN	1	0	1	0	1	0
8	1	10	48	3713	9294	0.55024912639055401087	0	1	1605.8508060013991781	0	NaN	NaN	0	1	1	0	1	0
8	1	10	49	13873	6311	0.55029533093329519033	1	1	902.90361300139920786	0	133	256	1	1	0	1	2	0
8	1	10	50	27858	9492	0.55034161696676164865	0	1	1673.3194260013988242	0	NaN	NaN	0	1	1	0	1	0
8	1	10	51	27418	8688	0.55038791918195784092	0	1	1353.8721229997463524	0	NaN	NaN	0	1	1	0	1	0
8	1	10	52	6865	3319	0.55048050207551568747	0	1	949.55920500069623813	0	NaN	NaN	0	1	1	0	1	0
8	1	10	53	30074	1769	0.55052680033259093761	0	1	710.9730869997292757	0	NaN	NaN	0	1	1	0	1	0
8	1	10	54	33072	8140	0.5505730888107791543	0	1	793.8351609991514124	0	NaN	NaN	0	1	1	0	1	0
8	1	10	55	4304	7561	0.55061938229482620955	0	1	957.48447899677557871	0	NaN	NaN	0	1	1	0	1	0
8	1	10	56	59767	2304	0.55066568544134497643	0	1	770.73941600247053429	0	NaN	NaN	0	1	1	0	1	0
8	1	10	57	7292	2481	0.55071197636425495148	0	1	807.57843199535273015	0	NaN	NaN	0	1	1	0	1	0
8	1	10	58	59438	2880	0.5507582732243463397	1	0	769.16961299866670743	0	402	NaN	1	0	1	0	1	0
8	1	10	59	28037	2186	0.55080456740688532591	1	0	2444.7728320010355674	0	162	NaN	1	0	1	0	1	0
8	1	10	60	16335	2935	0.55085085995960980654	0	0	803.6097049989621155	0	NaN	NaN	0	0	0	1	2	0
8	1	10	61	44836	5193	0.5508971561212092638	0	1	1077.985419993638061	0	NaN	NaN	0	1	1	0	1	0
8	1	10	62	9918	116	0.55094344087410718203	1	1	1456.9983319961465895	0	267	NaN	1	1	0	1	2	0
8	1	11	1	5648	9647	0.55279616895131766796	0	1	1158.2708579953759909	0	NaN	NaN	0	1	1	0	1	0
8	1	11	2	40215	1791	0.55284246383234858513	0	1	682.73389899695757776	0	NaN	NaN	0	1	1	0	1	0
8	1	11	3	38916	1407	0.55288875685073435307	0	1	669.34328900242689997	0	NaN	NaN	0	1	1	0	1	0
8	1	11	4	56043	770	0.55293505243025720119	0	1	802.25646300095831975	0	NaN	NaN	0	1	1	0	1	0
8	1	11	5	12161	2830	0.55298133997712284327	0	1	1070.9866090037394315	0	NaN	NaN	0	1	1	0	1	0
8	1	11	6	3927	2129	0.55302764789666980505	0	1	731.04514599981484935	0	NaN	NaN	0	1	1	0	1	0
8	1	11	7	39512	2579	0.55307393288239836693	0	1	755.39241499791387469	0	NaN	NaN	0	1	1	0	1	0
8	1	11	8	58691	3014	0.55312023649457842112	1	1	2057.3519250028766692	1	444	540	1	1	1	1	2	0
8	1	11	9	34239	459	0.55316651437897235155	0	0	1664.7917060035979375	0	NaN	NaN	0	0	0	1	2	0
8	1	11	10	43587	2642	0.55321282148361206055	0	1	1323.6976839980343357	0	NaN	NaN	0	1	1	0	1	0
8	1	11	11	42858	8996	0.55325911054387688637	0	1	1080.5205919969012029	0	NaN	NaN	0	1	1	0	1	0
8	1	11	12	35053	5745	0.55330541625153273344	1	1	1872.6226560029317625	0	114	NaN	1	1	0	1	2	0
8	1	11	13	72382	3410	0.55339799867942929268	0	1	1271.4457200054312125	0	NaN	NaN	0	1	1	0	1	0
8	1	11	14	54204	8116	0.55344428459648042917	0	1	1550.3523419974953867	0	NaN	NaN	0	1	1	0	1	0
8	1	11	15	8311	5733	0.55349058657884597778	1	0	1422.8025640040868893	0	114	NaN	1	0	1	0	1	0
8	1	11	16	67969	3951	0.55353687645401805639	1	1	841.64999399945372716	0	100	392	1	1	0	1	2	0
8	1	11	17	27051	1482	0.55358317983336746693	0	1	1944.2510599983506836	0	NaN	NaN	0	1	1	0	1	0
8	1	11	18	3392	4599	0.55362946295645087957	0	1	983.09362200234318152	0	NaN	NaN	0	1	1	0	1	0
8	1	11	19	10822	4040	0.55367576819844543934	0	1	886.32124700234271586	0	NaN	NaN	0	1	1	0	1	0
8	1	11	20	7850	4982	0.55372204596642404795	0	1	1228.5151020041666925	0	NaN	NaN	0	1	1	0	1	0
8	1	11	21	4498	8474	0.55376835225615650415	0	1	802.32179199811071157	0	NaN	NaN	0	1	1	0	1	0
8	1	11	22	42125	9657	0.55381463398225605488	1	1	1203.3949309989111498	0	321	NaN	1	1	0	1	2	0
8	1	11	23	11514	6168	0.55390722700394690037	0	1	1615.8503929982543923	0	NaN	NaN	0	1	1	0	1	0
8	1	11	24	62140	6537	0.55395351746119558811	0	1	1540.2472790010506287	0	NaN	NaN	0	1	1	0	1	0
8	1	11	25	68425	4759	0.55399980978108942509	0	1	2572.7577820071019232	0	NaN	NaN	0	1	1	0	1	0
8	1	11	26	7253	5514	0.55404612887650728226	1	NaN	NaN	NaN	171	NaN	1	NaN	0	0	NaN	0
8	1	11	27	22009	4620	0.55409230792429298162	0	1	869.71107900171773508	0	NaN	NaN	0	1	1	0	1	0
8	1	11	28	68084	7333	0.55413860490079969168	0	1	1068.6926839989610016	0	NaN	NaN	0	1	1	0	1	0
8	1	11	29	51774	1069	0.55418489954899996519	0	1	2469.0951119991950691	0	NaN	NaN	0	1	1	0	1	0
8	1	11	30	53507	1218	0.55423118919134140015	0	1	1150.0241749963606708	0	NaN	NaN	0	1	1	0	1	0
8	1	11	31	55634	1512	0.55427748139481991529	0	1	984.57220000273082405	0	NaN	NaN	0	1	1	0	1	0
8	1	11	32	3392	4599	0.55432377755641937256	1	1	967.4339749981299974	0	13	NaN	1	1	0	1	2	0
8	1	11	33	31256	1040	0.55437007208820432425	0	1	932.62298199988435954	0	NaN	NaN	0	1	1	0	1	0
8	1	11	34	36899	1624	0.55441635963506996632	1	1	1428.641678998246789	0	139	NaN	1	1	0	1	2	0
8	1	11	35	40170	1808	0.55450894730165600777	1	1	1602.9933669997262768	0	333	NaN	1	1	0	1	2	0
8	1	11	36	21675	4690	0.55455524835269898176	0	1	841.88868400087812915	0	NaN	NaN	0	1	1	0	1	0
8	1	11	37	54633	5019	0.55460154113825410604	0	1	1517.8810229990631342	0	NaN	NaN	0	1	1	0	1	0
8	1	11	38	46935	5219	0.55464783729985356331	0	1	752.079906000290066	0	NaN	NaN	0	1	1	0	1	0
8	1	11	39	48831	9102	0.55469413171522319317	0	1	779.58927200234029442	0	NaN	NaN	0	1	1	0	1	0
8	1	11	40	62883	9621	0.55474042496643960476	1	0	1673.2465490058530122	0	547	NaN	1	0	1	0	1	0
8	1	11	41	27618	5874	0.55478671228047460318	0	1	861.41550800675759092	0	NaN	NaN	0	1	1	0	1	0
8	1	11	42	14122	169	0.5548330061137676239	0	1	1281.4211029981379397	0	NaN	NaN	0	1	1	0	1	0
8	1	11	43	36399	9088	0.55487930821254849434	1	0	842.90526999393478036	0	122	NaN	1	0	1	0	1	0
8	1	11	44	60999	4637	0.5549718933179974556	0	1	1025.8036199957132339	0	NaN	NaN	0	1	1	0	1	0
8	1	11	45	38058	4522	0.55501819110941141844	0	1	773.95309800340328366	0	NaN	NaN	0	1	1	0	1	0
8	1	11	46	7641	7224	0.5550644764443859458	0	1	757.11750000482425094	0	NaN	NaN	0	1	1	0	1	0
8	1	11	47	54276	3822	0.55511077854316681623	0	1	912.4787159962579608	0	NaN	NaN	0	1	1	0	1	0
8	1	11	48	34094	6407	0.55515707214362919331	0	1	745.0877549999859184	0	NaN	NaN	0	1	1	0	1	0
8	1	11	49	50838	8393	0.55520335887558758259	0	1	840.17093700094847009	0	NaN	NaN	0	1	1	0	1	0
8	1	11	50	54204	8116	0.55524965946096926928	1	1	1824.5729799964465201	0	35	NaN	1	1	0	1	2	0
8	1	11	51	36494	2044	0.55529595550615340471	0	1	1903.9054129971191287	0	NaN	NaN	0	1	1	0	1	0
8	1	11	52	42568	3862	0.55534214701037853956	1	1	1503.8619190017925575	0	247	NaN	1	1	0	1	2	0
8	1	11	53	55263	8019	0.55538844235707074404	0	1	906.32267999899340793	0	NaN	NaN	0	1	1	0	1	0
8	1	11	54	38916	1407	0.55548102781176567078	1	1	1483.5132070002146065	0	50	NaN	1	1	0	1	2	0
8	1	11	55	57165	7367	0.55552732583601027727	1	1	888.66787400183966383	0	589	NaN	1	1	0	1	2	0
8	1	11	56	41257	8706	0.55557362153194844723	0	1	1062.5505659991176799	0	NaN	NaN	0	1	1	0	1	0
8	1	11	57	39976	2753	0.55561992048751562834	0	1	2907.7147259959019721	0	NaN	NaN	0	1	1	0	1	0
8	1	11	58	57180	3802	0.5556662045419216156	0	1	1181.3578959990991279	0	NaN	NaN	0	1	1	0	1	0
8	1	11	59	42125	9657	0.55571250536013394594	1	1	860.89733800326939672	0	36	358	1	1	0	1	2	0
8	1	11	60	12090	5714	0.55575879290699958801	1	1	1221.8236480039195158	0	191	390	1	1	0	1	2	0
8	1	11	61	26352	347	0.55580509395804256201	0	1	901.77995099656982347	0	NaN	NaN	0	1	1	0	1	0
8	1	11	62	38058	4522	0.55585139011964201927	1	1	974.73403599724406376	0	16	NaN	1	1	0	1	2	0
8	1	11	63	4071	5102	0.55589767778292298317	0	1	1260.9950949990889058	0	NaN	NaN	0	1	1	0	1	0
8	1	12	1	47577	1122	0.55742971983272582293	0	1	1185.0238950064522214	0	NaN	NaN	0	1	1	0	1	0
8	1	12	2	4787	36	0.5574760182062163949	1	0	849.26940000150352716	0	286	NaN	1	0	1	0	1	0
8	1	12	3	10600	5273	0.55752230843063443899	0	1	702.61876100266817957	0	NaN	NaN	0	1	1	0	1	0
8	1	12	4	39380	9335	0.55756861576810479164	1	1	1482.4114009970799088	0	269	NaN	1	1	0	1	2	0
8	1	12	5	72382	3410	0.55761489702854305506	1	1	1132.7792030060663819	0	54	NaN	1	1	0	1	2	0
8	1	12	6	70011	5670	0.55766120110638439655	0	1	929.83110700151883066	0	NaN	NaN	0	1	1	0	1	0
8	1	12	7	38931	5449	0.55770748527720570564	0	1	1014.4698080039233901	0	NaN	NaN	0	1	1	0	1	0
8	1	12	8	52199	4580	0.55775378330145031214	0	0	1377.5849800003925338	0	NaN	NaN	0	0	0	1	2	0
8	1	12	9	70819	1994	0.55780007538851350546	0	1	1202.0897160036838613	0	NaN	NaN	0	1	1	0	1	0
8	1	12	10	55277	1386	0.55784627236425876617	0	1	872.86776000109966844	0	NaN	NaN	0	1	1	0	1	0
8	1	12	11	5796	9828	0.55789256666321307421	0	1	1003.8735530033591203	0	NaN	NaN	0	1	1	0	1	0
8	1	12	12	2664	9484	0.55793886084575206041	1	1	973.02251400105888024	0	371	NaN	1	1	0	1	2	0
8	1	12	13	44479	1490	0.55798514687921851873	0	1	1257.2594249941175804	0	NaN	NaN	0	1	1	0	1	0
8	1	12	14	11160	131	0.55807773536071181297	0	1	732.24963399843545631	0	NaN	NaN	0	1	1	0	1	0
8	1	12	15	7477	5518	0.55812402954325079918	0	0	1653.4759309943183325	0	NaN	NaN	0	0	0	1	2	0
8	1	12	16	5138	1103	0.55817033303901553154	0	1	975.69199700228637084	0	NaN	NaN	0	1	1	0	1	0
8	1	12	17	31649	5354	0.55821661767549812794	0	1	872.88833099592011422	0	NaN	NaN	0	1	1	0	1	0
8	1	12	18	48727	8405	0.55826291942503303289	0	1	1259.0088490032940172	0	NaN	NaN	0	1	1	0	1	0
8	1	12	19	60584	4272	0.55830920848529785872	0	0	943.64991399925202131	0	NaN	NaN	0	0	0	1	2	0
8	1	12	20	24273	9513	0.55835550674237310886	0	0	2149.8158989998046309	0	NaN	NaN	0	0	0	1	2	0
8	1	12	21	54833	7408	0.5584017937071621418	0	1	1003.8075510019552894	0	NaN	NaN	0	1	1	0	1	0
8	1	12	22	70140	2913	0.55844809603877365589	1	1	1220.3416830016067252	0	140	NaN	1	1	0	1	2	0
8	1	12	23	27860	1834	0.55849438242148607969	0	1	1489.6202870004344732	0	NaN	NaN	0	1	1	0	1	0
8	1	12	24	29136	7141	0.5585869707865640521	0	1	1241.7445649989531375	0	NaN	NaN	0	1	1	0	1	0
8	1	12	25	14892	1784	0.55863327300176024437	0	1	805.46094500459730625	0	NaN	NaN	0	1	1	0	1	0
8	1	12	26	31105	3880	0.55867955880239605904	0	1	1011.5086349978810176	0	NaN	NaN	0	1	1	0	1	0
8	1	12	27	38916	1407	0.55872585217002779245	1	1	2539.6729720014263876	0	35	86	1	1	0	1	2	0
8	1	12	28	69843	5778	0.55877215415239334106	0	1	1202.2387899996829219	0	NaN	NaN	0	1	1	0	1	0
8	1	12	29	62428	5306	0.55881844728719443083	0	1	1463.6346789993694983	0	NaN	NaN	0	1	1	0	1	0
8	1	12	30	40696	6677	0.55886473564896732569	0	1	881.02220400469377637	0	NaN	NaN	0	1	1	0	1	0
8	1	12	31	17393	6378	0.55891103693284094334	0	1	1524.7583710006438196	0	NaN	NaN	0	1	1	0	1	0
8	1	12	32	8855	2451	0.55895733146462589502	1	0	1385.5642880007508211	0	305	NaN	1	0	1	0	1	0
8	1	12	33	54276	3822	0.55900361668318510056	1	1	1192.645501003426034	1	48	NaN	1	1	1	1	2	0
8	1	12	34	36637	5870	0.55909621331375092268	0	1	950.4769839986693114	0	NaN	NaN	0	1	1	0	1	0
8	1	12	35	69477	2567	0.55914241168648004532	0	0	891.40760999725898728	0	NaN	NaN	0	0	0	1	2	0
8	1	12	36	59998	1446	0.55918870307505130768	0	1	1214.4564070040360093	0	NaN	NaN	0	1	1	0	1	0
8	1	12	37	14529	173	0.55923500028438866138	1	1	1775.3936709996196441	0	123	NaN	1	1	0	1	2	0
8	1	12	38	51130	5360	0.55928129458334296942	0	1	832.56071899813832715	0	NaN	NaN	0	1	1	0	1	0
8	1	12	39	11514	6168	0.5593275795690715313	1	1	2442.3589110010652803	1	78	NaN	1	1	1	1	2	0
8	1	12	40	3392	4599	0.55937388353049755096	1	1	1165.0313949940027669	0	70	84	1	1	0	1	2	0
8	1	12	41	67179	4614	0.55942017689812928438	0	1	1129.2678140016505495	0	NaN	NaN	0	1	1	0	1	0
8	1	12	42	20306	8417	0.55946647224482148886	0	1	1520.3945149987703189	0	NaN	NaN	0	1	1	0	1	0
8	1	12	43	48379	2034	0.55955905851442366838	0	1	722.6968070026487112	0	NaN	NaN	0	1	1	0	1	0
8	1	12	44	29838	398	0.55960534478072077036	0	1	1180.5618449943722226	0	NaN	NaN	0	1	1	0	1	0
8	1	12	45	14210	8629	0.55965164210647344589	0	1	914.74779199779732153	0	NaN	NaN	0	1	1	0	1	0
8	1	12	46	9587	1411	0.55969794117845594883	0	1	1255.3662499994970858	0	NaN	NaN	0	1	1	0	1	0
8	1	12	47	61304	2152	0.559744230005890131	0	NaN	NaN	NaN	NaN	NaN	0	NaN	0	0	NaN	0
8	1	12	48	13078	6858	0.55979052709881216288	0	1	812.77197700546821579	0	NaN	NaN	0	1	1	0	1	0
8	1	12	49	26908	9391	0.55983682372607290745	0	1	677.55768799543147907	0	NaN	NaN	0	1	1	0	1	0
8	1	12	50	31649	5354	0.55988312058616429567	1	1	1002.7519460054463707	0	32	NaN	1	1	0	1	2	0
8	1	12	51	58145	805	0.55992941232398152351	1	1	1324.5118740014731884	0	240	NaN	1	1	0	1	2	0
8	1	12	52	11446	4665	0.5600219945190474391	0	1	2353.6361070000566542	0	NaN	NaN	0	1	1	0	1	0
8	1	12	53	4304	7561	0.56006829510442912579	1	1	1145.2743589979945682	0	122	NaN	1	1	0	1	2	0
8	1	12	54	5017	8160	0.56011457974091172218	0	NaN	NaN	NaN	NaN	NaN	0	NaN	0	0	NaN	0
8	1	12	55	46332	2161	0.5601608852157369256	0	1	1746.7567019994021393	0	NaN	NaN	0	1	1	0	1	0
8	1	12	56	46797	7903	0.56020717194769531488	0	1	1276.493636003579013	0	NaN	NaN	0	1	1	0	1	0
8	1	12	57	14916	7560	0.56025346857495605946	0	1	940.70655600080499426	0	NaN	NaN	0	1	1	0	1	0
8	1	12	58	2076	2370	0.56029976555146276951	0	1	1003.0404810022446327	0	NaN	NaN	0	1	1	0	1	0
8	1	12	59	27758	2563	0.56034595484379678965	0	1	837.38772600190714002	0	NaN	NaN	0	1	1	0	1	0
8	1	12	60	48682	670	0.56039225019048899412	0	1	631.33941900014178827	0	NaN	NaN	0	1	1	0	1	0
8	1	12	61	71246	9409	0.56043855147436261177	0	1	736.21092700341250747	0	NaN	NaN	0	1	1	0	1	0
8	1	12	62	3217	9681	0.56048483832273632288	0	1	766.57354000053601339	0	NaN	NaN	0	1	1	0	1	0
8	2	1	1	17670	8819	12.522148925345391035	0	1	1803.1397160011692904	0	NaN	NaN	0	1	1	0	1	0
8	2	1	2	51607	2972	12.522195216733962297	0	1	964.36884799913968891	0	NaN	NaN	0	1	1	0	1	0
8	2	1	3	14595	175	12.522241505212150514	0	1	707.92996600357582793	0	NaN	NaN	0	1	1	0	1	0
8	2	1	4	17632	6169	12.522287797997705638	1	0	1093.4054370009107515	0	219	NaN	0	1	1	0	1	0
8	2	1	5	58271	1591	12.522334094508551061	0	1	1506.4672599983168766	0	NaN	NaN	0	1	1	0	1	0
8	2	1	6	785	4692	12.52238039649091661	0	1	1356.8285870060208254	0	NaN	NaN	0	1	1	0	1	0
8	2	1	7	31794	4152	12.522426689509302378	0	1	1249.7373449950828217	0	NaN	NaN	0	1	1	0	1	0
8	2	1	8	30120	7167	12.5224729860201478	0	1	2436.0148999985540286	0	NaN	NaN	0	1	1	0	1	0
8	2	1	9	15203	4465	12.522519276943057775	1	0	1747.5756019994150847	0	154	NaN	0	1	1	0	1	0
8	2	1	10	63562	5313	12.522565570776350796	0	1	2842.6351819944102317	0	NaN	NaN	0	1	1	0	1	0
8	2	1	11	24481	305	12.522611865657381713	0	1	1661.6181240024161525	0	NaN	NaN	0	1	1	0	1	0
8	2	1	12	58786	9575	12.522658152272924781	1	1	1449.1202550052548759	0	346	NaN	0	0	0	1	2	0
8	2	1	13	36975	487	12.52270445367321372	0	1	1070.0625610043061897	0	NaN	NaN	0	1	1	0	1	0
8	2	1	14	23177	3997	12.522750738309696317	0	0	1410.9575019974727184	0	NaN	NaN	0	0	0	1	2	0
8	2	1	15	65970	7390	12.522843335755169392	1	0	1461.9609360015601851	0	233	NaN	0	1	1	0	1	0
8	2	1	16	45836	1277	12.522889628540724516	0	1	841.27425699989544228	0	NaN	NaN	0	1	1	0	1	0
8	2	1	17	13222	2195	12.52293592388741672	0	1	1658.3515519960201345	0	NaN	NaN	0	1	1	0	1	0
8	2	1	18	27634	5101	12.522982217371463776	0	1	869.73524299537530169	0	NaN	NaN	0	1	1	0	1	0
8	2	1	19	3300	1826	12.523028513765893877	0	1	856.52968900103587657	0	NaN	NaN	0	1	1	0	1	0
8	2	1	20	58271	1591	12.52307471027597785	1	1	1181.6741549992002547	0	14	NaN	1	1	0	1	2	0
8	2	1	21	62215	2080	12.523120999452657998	0	1	1029.297480003151577	0	NaN	NaN	0	1	1	0	1	0
8	2	1	22	49478	3804	12.523167289677076042	0	1	944.31092000013450161	0	NaN	NaN	0	1	1	0	1	0
8	2	1	23	44381	2773	12.523213591310195625	0	1	1205.5672400019830093	0	NaN	NaN	0	1	1	0	1	0
8	2	1	24	67400	5345	12.523306175251491368	1	0	1724.5074199963710271	0	190	NaN	0	1	1	0	1	0
8	2	1	25	63862	7130	12.523352474090643227	1	0	1362.1668599953409284	0	336	497	0	1	1	0	1	0
8	2	1	26	68726	3770	12.523398766992613673	1	0	1836.2781830001040362	0	646	NaN	0	1	1	0	1	0
8	2	1	27	55277	1386	12.523445054772309959	1	0	1163.5152969975024462	0	78	NaN	0	1	1	0	1	0
8	2	1	28	13818	9317	12.523491351050324738	0	1	938.75947200285736471	0	NaN	NaN	0	1	1	0	1	0
8	2	1	29	5984	8105	12.523537646280601621	0	1	1736.8626879979274236	0	NaN	NaN	0	1	1	0	1	0
8	2	1	30	48407	8280	12.523583944537676871	1	0	1602.0363710049423389	0	413	NaN	0	1	1	0	1	0
8	2	1	31	36911	485	12.523630230571143329	0	1	902.46888399997260422	0	NaN	NaN	0	1	1	0	1	0
8	2	1	32	16703	200	12.523676529177464545	0	1	1661.4424610015703365	0	NaN	NaN	0	1	1	0	1	0
8	2	1	33	44903	9130	12.52372281881980598	0	1	1051.8866510028601624	0	NaN	NaN	0	1	1	0	1	0
8	2	1	34	70805	2587	12.523769118008203804	0	1	1076.8588299979455769	0	NaN	NaN	0	1	1	0	1	0
8	2	1	35	11938	2904	12.523815412190742791	0	1	1429.9993859967798926	0	NaN	NaN	0	1	1	0	1	0
8	2	1	36	46271	4239	12.523907995666377246	0	1	1406.0350840009050444	0	NaN	NaN	0	1	1	0	1	0
8	2	1	37	59066	8001	12.523954289383254945	0	1	823.53308299934724346	0	NaN	NaN	0	1	1	0	1	0
8	2	1	38	64938	3312	12.52400058601051569	0	1	1010.7817309981328435	0	NaN	NaN	0	1	1	0	1	0
8	2	1	39	62539	6903	12.524046885780990124	0	1	1248.0868920029024594	0	NaN	NaN	0	1	1	0	1	0
8	2	1	40	63562	5313	12.524093173327855766	1	1	938.84365499980049208	0	29	NaN	1	1	0	1	2	0
8	2	1	41	60025	5567	12.524139469256624579	0	1	1656.2687490004464053	0	NaN	NaN	0	1	1	0	1	0
8	2	1	42	16767	9012	12.524185763904824853	0	1	1156.9675100035965443	0	NaN	NaN	0	1	1	0	1	0
8	2	1	43	18906	5208	12.524232059717178345	0	1	1217.4616599950240925	0	NaN	NaN	0	1	1	0	1	0
8	2	1	44	11554	3475	12.524278257857076824	0	1	2175.418935003108345	0	NaN	NaN	0	1	1	0	1	0
8	2	1	45	42773	2336	12.524324555182829499	1	1	2186.6557629982708022	0	366	433	0	0	0	1	2	0
8	2	1	46	42825	9008	12.524417137843556702	1	1	1465.5917929994757287	0	192	NaN	0	0	0	1	2	0
8	2	1	47	49548	7974	12.524463440990075469	1	0	1822.1520259976387024	0	333	539	0	1	1	0	1	0
8	2	1	48	49139	8441	12.524509733309969306	1	0	1307.016018996364437	0	582	NaN	0	1	1	0	1	0
8	2	1	49	5603	53	12.524556026444770396	1	0	903.24851300101727247	0	565	NaN	0	1	1	0	1	0
8	2	1	50	3627	14	12.524602320045232773	1	0	2002.9229060019133613	0	224	NaN	0	1	1	0	1	0
8	2	1	51	16565	2255	12.524648612714372575	1	0	2420.9638059983262792	0	256	NaN	0	1	1	0	1	0
8	2	1	52	65732	4096	12.524694905965588987	0	1	1076.5386649945867248	0	NaN	NaN	0	1	1	0	1	0
8	2	1	53	61749	848	12.524741198285482824	0	1	1514.4120420009130612	0	NaN	NaN	0	1	1	0	1	0
8	2	1	54	72898	4139	12.524787492817267776	0	1	1334.7290780002367683	0	NaN	NaN	0	1	1	0	1	0
8	2	1	55	988	9969	12.52488008001819253	0	1	1388.8568629990913905	0	NaN	NaN	0	1	1	0	1	0
8	2	1	56	67658	5604	12.524926368379965425	0	0	1804.3306300023687072	0	NaN	NaN	0	0	0	1	2	0
8	2	1	57	49151	5629	12.524972662911750376	0	0	2880.0313859974266961	0	NaN	NaN	0	0	0	1	2	0
8	2	1	58	10821	5555	12.525018960819579661	0	1	875.89364699670113623	0	NaN	NaN	0	1	1	0	1	0
8	2	1	59	8007	86	12.525065256631933153	0	0	1538.2670399994822219	0	NaN	NaN	0	0	0	1	2	0
8	2	1	60	32516	7292	12.525111553724855185	0	1	936.31353299861075357	0	NaN	NaN	0	1	1	0	1	0
8	2	1	61	61482	2391	12.525157843832857907	0	1	1451.5411140018841252	0	NaN	NaN	0	1	1	0	1	0
8	2	1	62	28738	1282	12.525204141973517835	0	1	961.50572999613359571	0	NaN	NaN	0	1	1	0	1	0
8	2	1	63	61304	2152	12.525250438950024545	1	0	1051.0086360009154305	0	77	NaN	0	1	1	0	1	0
8	2	2	1	65284	7785	12.526826348272152245	0	0	1632.0415440059150569	0	NaN	NaN	0	0	0	1	2	0
8	2	2	2	32341	4946	12.526872681570239365	0	1	1616.3020289968699217	0	NaN	NaN	0	1	1	0	1	0
8	2	2	3	15409	6483	12.526918943854980171	0	1	1002.0959769972250797	0	NaN	NaN	0	1	1	0	1	0
8	2	2	4	57453	1436	12.526965279248543084	0	1	1105.5440690033719875	0	NaN	NaN	0	1	1	0	1	0
8	2	2	5	46585	6808	12.527011531288735569	0	1	1014.256212001782842	0	NaN	NaN	0	1	1	0	1	0
8	2	2	6	55056	6129	12.52705787552986294	0	1	2004.6360139967873693	0	NaN	NaN	0	1	1	0	1	0
8	2	2	7	45756	3625	12.527104108943603933	0	0	1406.2076749978587031	1	NaN	NaN	0	0	1	1	2	0
8	2	2	8	27383	4127	12.527150459471158683	0	1	942.41863399656722322	0	NaN	NaN	0	1	1	0	1	0
8	2	2	9	4787	36	12.527196700451895595	1	0	928.48085200239438564	0	131	418	0	1	1	0	1	0
8	2	2	10	45756	3625	12.527243055286817253	1	1	945.02528999873902649	0	2	NaN	1	1	0	1	2	0
8	2	2	11	8976	8509	12.527335651917383075	0	0	3103.749011002946645	0	NaN	NaN	0	0	0	1	2	0
8	2	2	12	36303	7629	12.527381887659430504	0	1	1263.6266519984928891	0	NaN	NaN	0	1	1	0	1	0
8	2	2	13	53507	1218	12.527428248198702931	1	0	1559.4125569987227209	0	170	NaN	0	1	1	0	1	0
8	2	2	14	48331	6410	12.527474472648464143	1	0	1002.3139019976952113	0	267	NaN	0	1	1	0	1	0
8	2	2	15	13139	159	12.527520845527760684	0	1	1136.0525899945059791	0	NaN	NaN	0	1	1	0	1	0
8	2	2	16	36911	485	12.527567060547880828	1	1	1577.1525610034586862	0	47	NaN	1	1	0	1	2	0
8	2	2	17	38515	3127	12.527613441576249897	0	1	2174.8475939966738224	0	NaN	NaN	0	1	1	0	1	0
8	2	2	18	18822	9744	12.527659651706926525	0	0	2088.8018519981415011	0	NaN	NaN	0	0	0	1	2	0
8	2	2	19	35722	3412	12.52770603378303349	0	1	918.46723900380311534	0	NaN	NaN	0	1	1	0	1	0
8	2	2	20	57328	9461	12.527752236579544842	0	0	1807.2698269970715046	0	NaN	NaN	0	0	0	1	2	0
8	2	2	21	22009	4620	12.527844822499901056	1	0	1402.4994860010338016	0	181	NaN	0	1	1	0	1	0
8	2	2	22	64795	4250	12.527891120291315019	0	1	1102.4255060037830845	0	NaN	NaN	0	1	1	0	1	0
8	2	2	23	11385	8816	12.527937411447055638	1	0	1245.0504160005948506	0	272	NaN	0	1	1	0	1	0
8	2	2	24	70805	2587	12.527983718668110669	1	1	2257.6992790054646321	0	52	NaN	1	1	0	1	2	0
8	2	2	25	63744	7627	12.528029996203258634	0	1	1804.2551529943011701	0	NaN	NaN	0	1	1	0	1	0
8	2	2	26	25455	327	12.528076232178136706	0	1	1214.5694049977464601	0	NaN	NaN	0	1	1	0	1	0
8	2	2	27	5532	7054	12.528122490621171892	0	0	1473.3520270019653253	0	NaN	NaN	0	0	0	1	2	0
8	2	2	28	36750	6637	12.52816878235898912	0	1	786.6617890031193383	0	NaN	NaN	0	1	1	0	1	0
8	2	2	29	618	4945	12.528215081198140979	0	1	761.38217600237112492	0	NaN	NaN	0	1	1	0	1	0
8	2	2	30	22227	3524	12.528261372237466276	0	1	1167.1357310042367317	0	NaN	NaN	0	1	1	0	1	0
8	2	2	31	28018	8854	12.528307661414146423	0	1	2109.0486450048047118	0	NaN	NaN	0	1	1	0	1	0
8	2	2	32	54276	3822	12.528353964095003903	1	0	1621.2886110006365925	0	123	172	0	1	1	0	1	0
8	2	2	33	14529	173	12.528400256182067096	1	0	819.90721799957100302	0	120	244	0	1	1	0	1	0
8	2	2	34	42220	3975	12.528492847690358758	0	1	1028.3913470047991723	0	NaN	NaN	0	1	1	0	1	0
8	2	2	35	32011	8077	12.528539142804220319	0	1	936.25081000209320337	0	NaN	NaN	0	1	1	0	1	0
8	2	2	36	1610	3935	12.528585432795807719	0	1	1409.4347750069573522	0	NaN	NaN	0	1	1	0	1	0
8	2	2	37	18906	5208	12.528631722321733832	1	1	2313.8538659986807033	0	56	NaN	1	1	0	1	2	0
8	2	2	38	52168	3179	12.528678020113147795	0	1	920.92933900130447	0	NaN	NaN	0	1	1	0	1	0
8	2	2	39	57757	1189	12.528724311618134379	0	0	1111.1469719980959781	0	NaN	NaN	0	0	0	1	2	0
8	2	2	40	57380	8403	12.528770609758794308	0	1	2324.4169760000659153	0	NaN	NaN	0	1	1	0	1	0
8	2	2	41	35664	1776	12.528816904756240547	0	1	2344.25842000200646	0	NaN	NaN	0	1	1	0	1	0
8	2	2	42	69825	4187	12.528863198007456958	0	1	1651.9368139997823164	0	NaN	NaN	0	1	1	0	1	0
8	2	2	43	41890	3769	12.528909488464705646	0	1	2308.6959569991449825	0	NaN	NaN	0	1	1	0	1	0
8	2	2	44	60754	4812	12.529002081253565848	0	1	1226.0156920019653626	0	NaN	NaN	0	1	1	0	1	0
8	2	2	45	1749	6635	12.529048374621197581	0	0	1721.2262530010775663	0	NaN	NaN	0	0	0	1	2	0
8	2	2	46	44479	1490	12.529094671248458326	1	0	1208.3091130043612793	0	157	NaN	0	1	1	0	1	0
8	2	2	47	56597	9571	12.529140954255126417	1	0	962.58197000133804977	0	280	NaN	0	1	1	0	1	0
8	2	2	48	55277	1386	12.529187257750891149	1	1	1570.5351580036222003	0	83	162	1	1	0	1	2	0
8	2	2	49	5823	5896	12.529233549605123699	1	0	1337.8880939999362454	0	331	NaN	0	1	1	0	1	0
8	2	2	50	6160	3371	12.529279740178026259	0	1	1778.2834700046805665	0	NaN	NaN	0	1	1	0	1	0
8	2	2	51	53793	8303	12.529326035873964429	0	1	1369.1105429970775731	0	NaN	NaN	0	1	1	0	1	0
8	2	2	52	69730	8258	12.529372335178777575	0	1	1467.2050770022906363	0	NaN	NaN	0	1	1	0	1	0
8	2	2	53	50089	2854	12.529418629361316562	0	1	939.53219799732323736	0	NaN	NaN	0	1	1	0	1	0
8	2	2	54	35053	5745	12.529511212953366339	1	0	1911.0510239988798276	0	229	344	0	1	1	0	1	0
8	2	2	55	11141	8175	12.529557514353655279	1	0	1075.371416998677887	0	449	NaN	0	1	1	0	1	0
8	2	2	56	26907	6851	12.529603808769024909	0	1	1486.5765630020177923	0	NaN	NaN	0	1	1	0	1	0
8	2	2	57	9231	108	12.529650101903825998	0	1	1175.2223930016043596	0	NaN	NaN	0	1	1	0	1	0
8	2	2	58	14595	175	12.52969639259390533	1	1	958.76330500323092565	0	117	NaN	1	1	0	1	2	0
8	2	2	59	26907	6851	12.529742690268903971	1	1	1068.9842470019357279	0	2	NaN	1	1	0	1	2	0
8	2	2	60	53793	8303	12.529788977117277682	1	1	973.15472199989017099	0	8	NaN	1	1	0	1	2	0
8	2	2	61	71969	3663	12.529835276771336794	0	1	1624.6137109992559999	0	NaN	NaN	0	1	1	0	1	0
8	2	2	62	3300	1826	12.529881565482355654	1	1	864.57007200078805909	0	105	NaN	1	1	0	1	2	0
8	2	3	1	61749	848	12.5314258475555107	1	1	1162.1640439989278093	0	72	NaN	1	1	0	1	2	0
8	2	3	2	24543	1143	12.531472146394662559	0	1	1531.2266459950478747	0	NaN	NaN	0	1	1	0	1	0
8	2	3	3	13390	2020	12.531518428702838719	0	1	1039.1359810018911958	0	NaN	NaN	0	1	1	0	1	0
8	2	3	4	49869	3783	12.53156473976559937	0	1	902.48744699783856049	0	NaN	NaN	0	1	1	0	1	0
8	2	3	5	60754	4812	12.531611017766408622	1	1	923.34314600157085806	0	22	NaN	1	1	0	1	2	0
8	2	3	6	9049	106	12.53165732731577009	0	0	1421.9912109983852133	0	NaN	NaN	0	0	0	1	2	0
8	2	3	7	6585	4361	12.531703611020930111	0	0	840.25313700112747028	0	NaN	NaN	0	0	0	1	2	0
8	2	3	8	34532	1626	12.5317499078810215	0	0	1771.0730100006912835	1	NaN	NaN	0	0	1	1	2	0
8	2	3	9	14804	3996	12.531796201132237911	1	0	1244.5616600016364828	0	568	NaN	0	1	1	0	1	0
8	2	3	10	44084	4292	12.531842504977248609	0	0	1533.9804920004098676	0	NaN	NaN	0	0	0	1	2	0
8	2	3	11	41257	8706	12.531935093807987869	1	0	2277.6875119961914606	0	204	NaN	0	1	1	0	1	0
8	2	3	12	34581	1420	12.531981377513147891	0	1	1823.0392539990134537	0	NaN	NaN	0	1	1	0	1	0
8	2	3	13	14841	9893	12.532027668203227222	0	1	1384.0567809966159984	0	NaN	NaN	0	1	1	0	1	0
8	2	3	14	56250	7841	12.532073965994641185	0	1	1537.6983580063097179	0	NaN	NaN	0	1	1	0	1	0
8	2	3	15	54196	1803	12.532120250281877816	0	1	2084.3615789999603294	0	NaN	NaN	0	1	1	0	1	0
8	2	3	16	31256	1040	12.532166544813662767	1	0	1547.6475230025243945	0	232	NaN	0	1	1	0	1	0
8	2	3	17	872	3284	12.5322128483094275	1	1	1484.1120260025491007	0	761	NaN	0	0	0	1	2	0
8	2	3	18	22966	1498	12.532259142259135842	0	0	2273.3024740009568632	0	NaN	NaN	0	0	0	1	2	0
8	2	3	19	58783	2485	12.532305428991094232	0	1	1124.4730889957281761	0	NaN	NaN	0	1	1	0	1	0
8	2	3	20	42825	9008	12.532398015609942377	1	1	1056.2225670000771061	0	98	291	1	1	0	1	2	0
8	2	3	21	2664	9484	12.532444315846078098	1	0	2039.8881319997599348	0	195	567	0	1	1	0	1	0
8	2	3	22	70819	1994	12.532490612007677555	1	0	1850.0254790051258169	0	199	NaN	0	1	1	0	1	0
8	2	3	23	46000	625	12.53253690293058753	0	1	1305.4793789997347631	0	NaN	NaN	0	1	1	0	1	0
8	2	3	24	17670	8819	12.532583204912953079	1	0	1402.9743060018518008	0	147	NaN	1	0	1	0	1	0
8	2	3	25	9541	7020	12.532629495253786445	1	0	1246.0368460015160963	0	426	NaN	0	1	1	0	1	0
8	2	3	26	42852	570	12.532675792928785086	0	1	1464.7108509961981326	0	NaN	NaN	0	1	1	0	1	0
8	2	3	27	39643	7066	12.532722082454711199	0	1	886.20437299687182531	0	NaN	NaN	0	1	1	0	1	0
8	2	3	28	64516	7410	12.532768377801403403	0	1	1472.0761690041399561	0	NaN	NaN	0	1	1	0	1	0
8	2	3	29	37309	7306	12.532814672566018999	0	1	1274.185877999116201	0	NaN	NaN	0	1	1	0	1	0
8	2	3	30	65284	7785	12.532907258369959891	1	1	1109.1933530042297207	0	90	NaN	1	1	0	1	2	0
8	2	3	31	31794	4152	12.532953554182313383	1	1	2666.6945760007365607	1	148	NaN	1	1	1	1	2	0
8	2	3	32	67929	1645	12.532999848015606403	1	0	948.78757699916604906	0	682	NaN	0	1	1	0	1	0
8	2	3	33	22516	276	12.533046143013052642	0	1	1506.73445899883518	0	NaN	NaN	0	1	1	0	1	0
8	2	3	34	32699	1475	12.533092339406721294	0	0	2913.5840939998161048	1	NaN	NaN	0	0	1	1	2	0
8	2	3	35	33235	1102	12.533138633705675602	0	1	1110.1661339998827316	0	NaN	NaN	0	1	1	0	1	0
8	2	3	36	60754	4812	12.53318492800462991	1	1	1243.2698889970197342	0	30	53	1	1	0	1	2	0
8	2	3	37	31794	4152	12.533231219742447138	1	1	1076.6396980034187436	0	5	154	1	1	0	1	2	0
8	2	3	38	36911	485	12.533277511363849044	1	1	2074.2337470001075417	0	83	131	1	1	0	1	2	0
8	2	3	39	40841	534	12.533323803101666272	0	0	1143.4793430016725324	0	NaN	NaN	0	0	0	1	2	0
8	2	3	40	4304	7561	12.533370108343660831	1	1	785.72291399905225262	0	173	296	0	0	0	1	2	0
8	2	3	41	38475	7116	12.533416391466744244	0	0	1190.1827309993677773	0	NaN	NaN	0	0	0	1	2	0
8	2	3	42	59074	4035	12.533508986001834273	0	1	1565.7551280019106343	0	NaN	NaN	0	1	1	0	1	0
8	2	3	43	35941	6077	12.533555279718711972	0	1	974.48591599822975695	0	NaN	NaN	0	1	1	0	1	0
8	2	3	44	53802	4593	12.533601565985009074	0	1	1261.0928670037537813	0	NaN	NaN	0	1	1	0	1	0
8	2	3	45	57844	4442	12.533647865522652864	0	1	2172.4985729961190373	0	NaN	NaN	0	1	1	0	1	0
8	2	3	46	44903	9130	12.5336941679706797	1	1	806.76500400295481086	0	137	NaN	1	1	0	1	2	0
8	2	3	47	61749	848	12.533740457030944526	1	1	922.54724699887447059	0	45	118	1	1	0	1	2	0
8	2	3	48	55587	5221	12.533786755753681064	0	NaN	NaN	NaN	NaN	NaN	0	NaN	0	0	NaN	0
8	2	3	49	63562	5313	12.53383304551243782	1	NaN	NaN	NaN	133	163	1	NaN	0	0	NaN	0
8	2	3	50	565	4893	12.533879340160638094	0	NaN	NaN	NaN	NaN	NaN	0	NaN	0	0	NaN	0
8	2	3	51	9028	105	12.533925633761100471	0	1	2775.0535349987330846	0	NaN	NaN	0	1	1	0	1	0
8	2	3	52	10489	1937	12.533971932833082974	0	1	1054.8223509977106005	0	NaN	NaN	0	1	1	0	1	0
8	2	3	53	10499	4900	12.534018215024843812	1	0	642.08396699541481212	0	802	NaN	0	1	1	0	1	0
8	2	3	54	26907	6851	12.534110802109353244	1	1	1623.4643610005150549	0	56	59	1	1	0	1	2	0
8	2	3	55	64500	6265	12.534157105255872011	0	1	1417.5639629975194111	0	NaN	NaN	0	1	1	0	1	0
8	2	3	56	51774	1069	12.534203399089165032	1	0	1187.505342997610569	0	276	NaN	0	1	2	0	1	0
8	2	3	57	13222	2195	12.534249687567353249	1	1	902.8687400059425272	0	164	NaN	1	1	0	1	2	0
8	2	3	58	65201	2484	12.534295981167815626	0	0	1045.8499719970859587	0	NaN	NaN	0	0	0	1	2	0
8	2	3	59	6919	3699	12.534342187689617276	0	0	1706.6052579975803383	0	NaN	NaN	0	0	0	1	2	0
8	2	3	60	24383	3940	12.534388470812700689	0	1	811.50352099939482287	0	NaN	NaN	0	1	1	0	1	0
8	2	3	61	5532	7054	12.534434770350344479	1	1	1029.3740160050219856	0	95	NaN	1	1	0	1	2	0
8	2	3	62	221	2492	12.534481068141758442	0	1	2113.97707700234605	0	NaN	NaN	0	1	1	0	1	0
8	2	3	63	36303	7629	12.534527362324297428	1	1	1022.599740004807245	0	112	NaN	1	1	0	1	2	0
8	2	4	1	10600	5273	12.536864791647531092	1	0	1341.4676800020970404	0	247	NaN	0	1	1	0	1	0
8	2	4	2	52280	4467	12.536911120638251305	0	1	1548.6378939967835322	0	NaN	NaN	0	1	1	0	1	0
8	2	4	3	67658	5604	12.536957374308258295	1	1	1133.4011930011911318	0	134	NaN	1	1	0	1	2	0
8	2	4	4	27383	4127	12.537003709701821208	1	1	1114.5100180001463741	0	120	NaN	1	1	0	1	2	0
8	2	4	5	51608	5242	12.537049963022582233	0	1	1779.2972710012691095	1	NaN	NaN	0	1	1	1	1	0
8	2	4	6	53892	742	12.537096306681632996	0	1	1325.7441860041581094	0	NaN	NaN	0	1	1	0	1	0
8	2	4	7	51584	5995	12.537142549874261022	0	1	884.90348299819743261	0	NaN	NaN	0	1	1	0	1	0
8	2	4	8	21245	6183	12.537188906804658473	0	1	1038.3390179995330982	0	NaN	NaN	0	1	1	0	1	0
8	2	4	9	52325	3974	12.537235147668980062	0	1	1415.5812239987426437	0	NaN	NaN	0	1	1	0	1	0
8	2	4	10	5880	3927	12.537327724741771817	0	1	824.98060299985809252	0	NaN	NaN	0	1	1	0	1	0
8	2	4	11	60886	9913	12.537374039879068732	1	1	1434.8368190039764158	0	874	NaN	0	0	0	1	2	0
8	2	4	12	39643	7066	12.537420314853079617	1	1	1227.9471430010744371	0	47	NaN	1	1	0	1	2	0
8	2	4	13	61874	853	12.53746662603225559	0	1	1606.8106710008578375	1	NaN	NaN	0	1	1	1	1	0
8	2	4	14	32231	7979	12.537512903800234199	0	1	1021.4719779978622682	0	NaN	NaN	0	1	1	0	1	0
8	2	4	15	31028	2247	12.537559204502031207	0	1	1090.311342995846644	0	NaN	NaN	0	1	1	0	1	0
8	2	4	16	20508	4061	12.537605492165312171	1	0	816.49794000259134918	0	855	NaN	0	1	1	0	1	0
8	2	4	17	55082	7697	12.537651801132597029	1	0	780.02717000345000997	0	392	NaN	0	1	1	0	1	0
8	2	4	18	13039	2287	12.537698080530390143	0	1	843.49908000149298459	0	NaN	NaN	0	1	1	0	1	0
8	2	4	19	23128	9977	12.537790667731314898	0	1	1007.2980080003617331	0	NaN	NaN	0	1	1	0	1	0
8	2	4	20	17543	6728	12.537836979143321514	0	1	701.29251599428243935	0	NaN	NaN	0	1	1	0	1	0
8	2	4	21	52359	5811	12.537883253418840468	0	1	1144.3381330027477816	0	NaN	NaN	0	1	1	0	1	0
8	2	4	22	69043	3586	12.53792956005781889	0	1	778.20791099657071754	0	NaN	NaN	0	1	1	0	1	0
8	2	4	23	21750	2584	12.537975843995809555	0	1	907.76065400132210925	0	NaN	NaN	0	1	1	0	1	0
8	2	4	24	58918	5905	12.53802214318420738	0	1	1462.1260460044140927	0	NaN	NaN	0	1	1	0	1	0
8	2	4	25	48088	6619	12.53806843317579478	0	1	1520.9782840029220097	0	NaN	NaN	0	1	1	0	1	0
8	2	4	26	10600	5273	12.538114635506644845	1	1	933.02816600044025108	0	24	272	1	1	0	1	2	0
8	2	4	27	10499	4900	12.538160926196724176	1	0	1231.7475529998773709	0	36	839	1	0	1	0	1	0
8	2	4	28	27051	1482	12.538207216188311577	1	0	1020.0086940021719784	0	323	NaN	0	1	1	0	1	0
8	2	4	29	6212	6719	12.538253509090282023	0	1	1976.6841559976455756	0	NaN	NaN	0	1	1	0	1	0
8	2	4	30	9541	7020	12.538299810723401606	1	1	1244.8287879960844293	0	67	494	1	1	0	1	2	0
8	2	4	31	70587	5563	12.538392402231693268	0	0	1005.1966140017611906	0	NaN	NaN	0	0	0	1	2	0
8	2	4	32	41386	7950	12.538438695017248392	0	0	1867.1037530002649873	0	NaN	NaN	0	0	0	1	2	0
8	2	4	33	66956	3249	12.538484988268464804	0	1	952.1019489984610118	0	NaN	NaN	0	1	1	0	1	0
8	2	4	34	3731	8261	12.538531281868927181	0	1	1408.5166340009891428	0	NaN	NaN	0	1	1	0	1	0
8	2	4	35	54781	8768	12.538577572209760547	0	1	1831.8365040031494573	0	NaN	NaN	0	1	1	0	1	0
8	2	4	36	23128	9977	12.538623862434178591	1	0	1409.7940420033410192	0	16	NaN	1	0	1	0	1	0
8	2	4	37	65250	9537	12.538670164649374783	0	1	1318.7890330009395257	0	NaN	NaN	0	1	1	0	1	0
8	2	4	38	52055	7895	12.538716450333595276	0	1	1976.9614570031990297	0	NaN	NaN	0	1	1	0	1	0
8	2	4	39	1052	2206	12.538762745331041515	0	1	1239.8377790013910271	0	NaN	NaN	0	1	1	0	1	0
8	2	4	40	45902	9316	12.538809047662653029	0	1	1152.0816619959077798	0	NaN	NaN	0	1	1	0	1	0
8	2	4	41	17393	6378	12.538855333812534809	1	1	1247.4110889961593784	0	259	NaN	0	0	0	1	2	0
8	2	4	42	38730	4567	12.538901627180166543	0	1	974.75341199606191367	0	NaN	NaN	0	1	1	0	1	0
8	2	4	43	41386	7950	12.538994223810732365	1	1	987.90448399813612923	0	10	NaN	1	1	0	1	2	0
8	2	4	44	599	8037	12.539040517411194742	0	1	1882.848221983294934	0	NaN	NaN	0	1	1	0	1	0
8	2	4	45	27949	4211	12.539086827076971531	1	0	1401.9144490011967719	0	404	NaN	0	1	1	0	1	0
8	2	4	46	32434	2604	12.539133102050982416	1	0	1382.7525240194518119	0	502	516	0	1	1	0	1	0
8	2	4	47	39877	3070	12.539179411600343883	0	1	1959.0405840135645121	0	NaN	NaN	0	1	1	0	1	0
8	2	4	48	56711	5826	12.539225699380040169	0	1	943.20018001599237323	0	NaN	NaN	0	1	1	0	1	0
8	2	4	49	9512	2750	12.539271997986361384	0	1	962.70540400291793048	0	NaN	NaN	0	1	1	0	1	0
8	2	4	50	38058	4522	12.539318286697380245	1	0	880.55541302310302854	0	300	317	0	1	1	0	1	0
8	2	4	51	27427	5972	12.539364584372378886	0	1	1229.4257429894059896	0	NaN	NaN	0	1	1	0	1	0
8	2	4	52	57380	8403	12.539410873665474355	1	1	1562.4108779884409159	0	136	NaN	1	1	0	1	2	0
8	2	4	53	53892	742	12.539457178674638271	1	0	1857.6220709946937859	0	46	NaN	1	0	1	0	1	0
8	2	4	54	5226	3350	12.539503463311120868	0	1	2084.1440689982846379	0	NaN	NaN	0	1	1	0	1	0
8	2	4	55	17632	6169	12.539596051792614162	1	1	2073.7561569840181619	0	238	458	1	1	0	1	2	0
8	2	4	56	53859	740	12.539642352028749883	0	0	1201.8035300134215504	0	NaN	NaN	0	0	0	1	2	0
8	2	4	57	60584	4272	12.539688642835244536	1	0	1083.9478200068697333	0	287	NaN	0	1	1	0	1	0
8	2	4	58	70011	5670	12.539734936668537557	1	0	1861.5090649982448667	0	301	NaN	0	1	1	0	1	0
8	2	4	59	30848	412	12.53978122747503221	0	0	1758.5164410120341927	0	NaN	NaN	0	0	0	1	2	0
8	2	4	60	17357	7873	12.539827533764764667	0	1	1182.299895997857675	0	NaN	NaN	0	1	1	0	1	0
8	2	4	61	22783	282	12.539873816887848079	0	0	2059.5598850050009787	0	NaN	NaN	0	0	0	1	2	0
8	2	4	62	53507	1218	12.53992011584341526	1	0	1323.8432139914948493	0	173	344	1	0	1	0	1	0
8	2	5	1	57380	8403	19.520480726496316493	1	1	1025.3627820056863129	0	10	147	1	1	0	1	2	0
8	2	5	2	47577	1122	19.520527024869807065	1	0	1190.7499090011697263	0	312	NaN	0	1	1	0	1	0
8	2	5	3	53859	740	19.520573301124386489	1	1	808.79029200877994299	0	8	NaN	1	1	0	1	2	0
8	2	5	4	21828	6328	19.52061961404979229	0	1	1501.0535689943935722	0	NaN	NaN	0	1	1	0	1	0
8	2	5	5	53867	9548	19.520665897871367633	0	1	1087.5076600059401244	0	NaN	NaN	0	1	1	0	1	0
8	2	5	6	33934	9510	19.520712198922410607	0	1	1820.1747490093111992	0	NaN	NaN	0	1	1	0	1	0
8	2	5	7	6585	4361	19.520758486120030284	1	0	1122.7407119877170771	0	124	NaN	1	0	1	0	1	0
8	2	5	8	5579	1368	19.520804784842766821	0	0	1144.2120490246452391	0	NaN	NaN	0	0	0	1	2	0
8	2	5	9	67536	7912	19.520851069246418774	0	1	1208.9830460026860237	0	NaN	NaN	0	1	1	0	1	0
8	2	5	10	69166	7719	19.520897373673506081	0	1	1201.2359259824734181	0	NaN	NaN	0	1	1	0	1	0
8	2	5	11	30082	402	19.52098996564745903	0	1	1746.0449299833271652	0	NaN	NaN	0	1	1	0	1	0
8	2	5	12	46156	6404	19.521036250749602914	0	1	1060.364044999005273	0	NaN	NaN	0	1	1	0	1	0
8	2	5	13	53793	8303	19.52108255063649267	1	1	1501.4351829886436462	0	139	148	1	1	0	1	2	0
8	2	5	14	43938	2937	19.521128838765434921	0	0	1329.590623005060479	0	NaN	NaN	0	0	0	1	2	0
8	2	5	15	66967	9883	19.52117513632401824	0	1	1329.247907007811591	0	NaN	NaN	0	1	1	0	1	0
8	2	5	16	38515	3127	19.521221424802206457	1	1	1317.9169810027815402	0	185	NaN	1	1	0	1	2	0
8	2	5	17	42852	570	19.521267731324769557	1	0	1523.5333190066739917	0	115	NaN	1	0	1	0	1	0
8	2	5	18	5879	55	19.52131401002407074	0	1	1240.3977150097489357	0	NaN	NaN	0	1	1	0	1	0
8	2	5	19	38530	4918	19.521360316663049161	0	1	1361.7224929912481457	0	NaN	NaN	0	1	1	0	1	0
8	2	5	20	57182	7027	19.521406603395007551	0	1	2360.145774990087375	0	NaN	NaN	0	1	1	0	1	0
8	2	5	21	23933	1905	19.521499184076674283	0	1	1191.6714799881447107	0	NaN	NaN	0	1	1	0	1	0
8	2	5	22	22117	8442	19.521545491646975279	0	1	1062.4177350255195051	0	NaN	NaN	0	1	1	0	1	0
8	2	5	23	39860	5111	19.521591771626845002	0	1	1662.7676789939869195	0	NaN	NaN	0	1	1	0	1	0
8	2	5	24	22748	6764	19.521638074656948447	0	0	1185.633523011347279	0	NaN	NaN	0	0	0	2	2	0
8	2	5	25	66799	9665	19.521684360690414906	0	1	2002.717244002269581	0	NaN	NaN	0	1	1	0	1	0
8	2	5	26	53230	6618	19.521730654174461961	0	1	933.97631699917837977	0	NaN	NaN	0	1	1	0	1	0
8	2	5	27	63871	8844	19.521776951150968671	0	0	1524.1566059994511306	0	NaN	NaN	0	0	0	1	2	0
8	2	5	28	11200	5631	19.521823154180310667	0	1	1948.3658640237990767	0	NaN	NaN	0	1	1	0	1	0
8	2	5	29	26436	349	19.521869440679438412	0	1	2041.9059499981813133	0	NaN	NaN	0	1	1	0	1	0
8	2	5	30	7678	6574	19.521962034981697798	0	1	1310.5689040094148368	0	NaN	NaN	0	1	1	0	1	0
8	2	5	31	29038	9972	19.522008323692716658	1	1	1630.5615980236325413	0	829	NaN	0	0	0	1	2	0
8	2	5	32	19401	6444	19.522054617642425001	0	1	1532.1828140004072338	0	NaN	NaN	0	1	1	0	1	0
8	2	5	33	12161	2830	19.522100912407040596	1	1	2063.1956199940759689	0	402	NaN	0	0	0	1	2	0
8	2	5	34	56794	8399	19.522147210664115846	0	1	1570.5607979907654226	0	NaN	NaN	0	1	1	0	1	0
8	2	5	35	61989	4244	19.52219349832739681	0	1	1712.9742940014693886	0	NaN	NaN	0	1	1	0	1	0
8	2	5	36	49071	3515	19.522239799844101071	0	1	1792.1584239811636508	0	NaN	NaN	0	1	1	0	1	0
8	2	5	37	38475	7116	19.522286097053438425	1	0	1634.4752080040052533	0	120	NaN	1	0	1	0	1	0
8	2	5	38	33449	8678	19.522332381689921021	0	1	1520.5133179842960089	0	NaN	NaN	0	1	1	0	1	0
8	2	5	39	9371	5890	19.522378674941137433	0	1	1814.365013997303322	0	NaN	NaN	0	1	1	0	1	0
8	2	5	40	29716	4838	19.522424972848966718	0	1	1770.6777990097180009	0	NaN	NaN	0	1	1	0	1	0
8	2	5	41	36615	3861	19.522517564939334989	0	0	1892.4311590089928359	0	NaN	NaN	0	0	0	1	2	0
8	2	5	42	2241	3728	19.522563853766769171	0	1	952.64462300110608339	0	NaN	NaN	0	1	1	0	1	0
8	2	5	43	23277	7625	19.522610149113461375	0	1	2385.9670599922537804	0	NaN	NaN	0	1	1	0	1	0
8	2	5	44	65337	6361	19.52265644958242774	0	0	3047.308814013376832	1	NaN	NaN	0	0	1	1	2	0
8	2	5	45	60999	4637	19.522702737362124026	1	0	1703.9317850139923394	0	375	NaN	0	1	1	0	1	0
8	2	5	46	53937	2812	19.52274903526995331	0	1	1542.2008620225824416	0	NaN	NaN	0	1	1	0	1	0
8	2	5	47	42156	1303	19.522795322933234274	0	1	1662.5007709953933954	0	NaN	NaN	0	1	1	0	1	0
8	2	5	48	4252	7545	19.522841622238047421	0	1	1393.684359994949773	0	NaN	NaN	0	1	1	0	1	0
8	2	5	49	48806	2298	19.522887918050400913	0	1	1404.0516879758797586	0	NaN	NaN	0	1	1	0	1	0
8	2	5	50	28639	5401	19.522980498964898288	0	1	1254.4691770162899047	0	NaN	NaN	0	1	1	0	1	0
8	2	5	51	55122	9776	19.523026800365187228	0	1	1505.8540700119920075	0	NaN	NaN	0	1	1	0	1	0
8	2	5	52	8685	1056	19.523073097807355225	0	1	1787.8292539971880615	0	NaN	NaN	0	1	2	0	1	0
8	2	5	53	51584	5995	19.523119292804040015	1	1	1086.6227969818282872	0	107	NaN	1	1	0	1	2	0
8	2	5	54	63466	5431	19.523165578837506473	0	0	1606.126871018204838	0	NaN	NaN	0	0	0	1	2	0
8	2	5	55	51616	8593	19.523211883846670389	0	1	1422.4461869744118303	0	NaN	NaN	0	1	1	0	1	0
8	2	5	56	55772	9719	19.523258173721842468	0	1	2027.9160270001739264	0	NaN	NaN	0	1	1	0	1	0
8	2	5	57	71216	6148	19.523304469301365316	1	0	1026.1294709926005453	0	449	NaN	0	1	1	0	1	0
8	2	5	58	63715	2687	19.523350764764472842	0	1	2341.7017259926069528	0	NaN	NaN	0	1	1	0	1	0
8	2	5	59	69825	4187	19.523397057084366679	1	0	1646.3918070076033473	0	203	NaN	1	0	1	0	1	0
8	2	5	60	56453	3765	19.523443351499736309	0	1	1207.1962750051170588	0	NaN	NaN	0	1	1	0	1	0
8	2	5	61	71045	4431	19.523489645216614008	0	1	1207.4587039824109524	0	NaN	NaN	0	1	1	0	1	0
8	2	5	62	51774	1069	19.523535936488769948	1	0	1591.7196210066322237	0	130	407	1	0	1	0	1	0
8	2	5	63	25845	7531	19.523582230904139578	0	0	2575.8722780155949295	0	NaN	NaN	0	0	0	1	2	0
8	2	6	1	51584	5995	19.528044839738868177	1	1	1402.6094340078998357	0	10	118	1	1	0	1	2	0
8	2	6	2	42741	8152	19.528091131942346692	0	1	1382.3833900096360594	0	NaN	NaN	0	1	1	0	1	0
8	2	6	3	52759	3854	19.528137426590546966	0	0	1721.1188700166530907	0	NaN	NaN	0	0	0	1	2	0
8	2	6	4	66177	2311	19.528183716465719044	0	1	2236.359471979085356	0	NaN	NaN	0	1	1	0	1	0
8	2	6	5	565	4893	19.528230017051100731	1	0	2155.2086659939959645	0	142	NaN	1	0	1	0	1	0
8	2	6	6	67250	1470	19.528276299708522856	0	0	1949.7679490013979375	0	NaN	NaN	0	0	0	1	2	0
8	2	6	7	12161	2830	19.528322602389380336	1	1	1131.7791589826811105	0	36	439	1	1	0	1	2	0
8	2	6	8	38818	511	19.528368947096168995	1	0	1924.0323220146819949	0	550	NaN	0	1	1	0	1	0
8	2	6	9	50483	1066	19.528415187494829297	0	1	3301.6226220061071217	0	NaN	NaN	0	1	1	0	1	0
8	2	6	10	24425	8504	19.52846154326107353	0	1	1019.5616109995171428	0	NaN	NaN	0	1	1	0	1	0
8	2	6	11	66177	2311	19.528507781913504004	1	1	893.01274297758936882	0	6	NaN	1	1	0	1	2	0
8	2	6	12	938	9040	19.528600362013094127	0	1	2531.3472170091699809	1	NaN	NaN	0	1	1	1	1	0
8	2	6	13	9975	8422	19.528646726394072175	0	1	1449.8843399924226105	0	NaN	NaN	0	1	1	0	1	0
8	2	6	14	29716	4838	19.528692957828752697	1	1	1363.6005879961885512	0	36	NaN	1	1	0	1	2	0
8	2	6	15	9290	7165	19.528739323955960572	0	0	2429.7075940121430904	0	NaN	NaN	0	0	0	1	2	0
8	2	6	16	11446	4665	19.52878554118797183	1	1	1428.620566992321983	0	338	NaN	0	0	0	1	2	0
8	2	6	17	22516	276	19.528831919655203819	1	1	1250.183463009307161	0	171	NaN	1	1	0	1	2	0
8	2	6	18	50514	6487	19.528878134209662676	0	1	2633.0838190042413771	0	NaN	NaN	0	1	1	0	1	0
8	2	6	19	62036	8383	19.528924514423124492	0	1	2919.1790740005671978	1	NaN	NaN	0	1	1	1	1	0
8	2	6	20	4284	4095	19.528970717336051166	1	0	1102.3388470057398081	0	533	NaN	0	1	1	0	1	0
8	2	6	21	64276	7176	19.52901711268350482	0	1	2029.9368669802788645	0	NaN	NaN	0	1	1	0	1	0
8	2	6	22	63963	5279	19.529109709546901286	0	0	2693.1007090024650097	0	NaN	NaN	0	0	0	1	2	0
8	2	6	23	36615	3861	19.529155898257158697	1	1	1341.2476960220374167	0	44	NaN	1	1	0	1	2	0
8	2	6	24	43891	7300	19.529202304896898568	1	0	3536.0177849943283945	0	950	NaN	0	1	1	0	1	0
8	2	6	25	58955	9879	19.529248478589579463	0	1	1203.6976370145566761	0	NaN	NaN	0	1	1	0	1	0
8	2	6	26	66966	5288	19.52929478173609823	0	1	910.62471800250932574	0	NaN	NaN	0	1	1	0	1	0
8	2	6	27	5352	8201	19.52934107615146786	0	1	1462.3201669892296195	0	NaN	NaN	0	1	1	0	1	0
8	2	6	28	35577	9458	19.529387285350821912	0	1	861.29858600907027721	0	NaN	NaN	0	1	1	0	1	0
8	2	6	29	51078	700	19.529433563351631165	0	1	1146.3274370180442929	0	NaN	NaN	0	1	1	0	1	0
8	2	6	30	4252	7545	19.529479868710041046	1	1	1146.2087380059529096	0	44	NaN	1	1	0	1	2	0
8	2	6	31	21583	9753	19.529526147176511586	0	1	1260.988367983372882	0	NaN	NaN	0	1	1	0	1	0
8	2	6	32	9913	2981	19.529572448809631169	0	1	1284.2235199932474643	0	NaN	NaN	0	1	1	0	1	0
8	2	6	33	66177	2311	19.529618736472912133	1	1	1014.2968989966902882	0	21	28	1	1	0	1	2	0
8	2	6	34	33235	1102	19.529711323790252209	1	0	2378.4742439747788012	0	186	NaN	1	0	1	0	1	0
8	2	6	35	28037	2186	19.529757626471109688	1	0	1434.1965490020811558	0	475	638	0	1	1	0	1	0
8	2	6	36	45427	5676	19.529803920304402709	0	1	1343.3086509758140892	0	NaN	NaN	0	1	1	0	1	0
8	2	6	37	70657	2841	19.529850206919945776	0	1	2657.5294170179404318	0	NaN	NaN	0	1	1	0	1	0
8	2	6	38	35837	9452	19.529896505293436348	0	1	1536.2863620102871209	0	NaN	NaN	0	1	1	0	1	0
8	2	6	39	52081	6883	19.529942801338620484	0	1	1403.8982869824394584	0	NaN	NaN	0	1	1	0	1	0
8	2	6	40	17728	5686	19.529989097150973976	0	1	1204.6421169943641871	0	NaN	NaN	0	1	1	0	1	0
8	2	6	41	10260	1448	19.530035389005206525	0	0	2612.3894279880914837	0	NaN	NaN	0	0	0	1	2	0
8	2	6	42	16317	2353	19.53008168051019311	0	0	1402.1179289848078042	0	NaN	NaN	0	0	0	1	2	0
8	2	6	43	8998	7726	19.530127970967441797	0	1	2116.723423998337239	0	NaN	NaN	0	1	1	0	1	0
8	2	6	44	59633	6890	19.530220561660826206	0	0	2793.4379810176324099	0	NaN	NaN	0	0	0	1	2	0
8	2	6	45	54014	6928	19.530266859917901456	0	1	1093.0278919986449182	0	NaN	NaN	0	1	1	0	1	0
8	2	6	46	9672	7722	19.530313155031763017	0	1	1944.8655700252857059	0	NaN	NaN	0	1	1	0	1	0
