SUBJECT	SESSION	RUN	TRIAL	73KID	10KID	TIME	ISOLD	ISCORRECT	RT	CHANGEMIND	MEMORYRECENT	MEMORYFIRST	ISOLDCURRENT	ISCORRECTCURRENT	TOTAL1	TOTAL2	BUTTON	MISSINGDATA
6	1	1	1	46003	626	0.68952085776254534721	0	1	665.10539000228163786	0	NaN	NaN	0	1	1	0	1	0
6	1	1	2	21397	5013	0.68956714461091905832	0	1	543.21970499950111844	0	NaN	NaN	0	1	1	0	1	0
6	1	1	3	18925	4850	0.68961345148272812366	0	1	658.33768299853545614	0	NaN	NaN	0	1	1	0	1	0
6	1	1	4	27158	8823	0.68965974135790020227	0	1	905.89925799940829165	0	NaN	NaN	0	1	1	0	1	0
6	1	1	5	16125	9538	0.68970603926572948694	0	1	680.33175899836351164	0	NaN	NaN	0	1	1	0	1	0
6	1	1	6	25660	6061	0.68975233950186520815	0	1	686.79739100116421469	0	NaN	NaN	0	1	1	0	1	0
6	1	1	7	3644	4421	0.68979862111154943705	0	1	556.86726500061922707	0	NaN	NaN	0	1	1	0	1	0
6	1	1	8	6454	3858	0.68984493368770927191	0	1	585.38177499940502457	0	NaN	NaN	0	1	1	0	1	0
6	1	1	9	18245	8124	0.68989121599588543177	0	1	587.85707900096895173	0	NaN	NaN	0	1	1	0	1	0
6	1	1	10	59119	4843	0.68993753055110573769	0	1	568.71362899983068928	0	NaN	NaN	0	1	1	0	1	0
6	1	1	11	34518	7941	0.68998380377888679504	0	1	556.26591600230312906	0	NaN	NaN	0	1	1	0	1	0
6	1	1	12	20971	4523	0.6900301262503489852	0	1	545.6038090014772024	0	NaN	NaN	0	1	1	0	1	0
6	1	1	13	70206	1070	0.69012272392865270376	0	1	534.04555700035416521	0	NaN	NaN	0	1	1	0	1	0
6	1	1	14	65901	9588	0.69016898027621209621	0	1	519.03036700241500512	0	NaN	NaN	0	1	1	0	1	0
6	1	1	15	1603	4623	0.69021531916223466396	0	1	517.04541599974618293	0	NaN	NaN	0	1	1	0	1	0
6	1	1	16	15133	3185	0.69026157073676586151	0	1	578.4715610025159549	0	NaN	NaN	0	1	1	0	1	0
6	1	1	17	39352	4586	0.69030791718978434801	0	1	487.89193399716168642	0	NaN	NaN	0	1	1	0	1	0
6	1	1	18	39930	1009	0.69035415723919868469	0	1	586.97415699862176552	0	NaN	NaN	0	1	1	0	1	0
6	1	1	19	17678	8634	0.69040050567127764225	0	1	627.8168230019218754	0	NaN	NaN	0	1	1	0	1	0
6	1	1	20	26937	9648	0.69044674804899841547	0	1	601.40042100101709366	0	NaN	NaN	0	1	1	0	1	0
6	1	1	21	50548	9425	0.69049310311675071716	0	1	618.15298099827487022	0	NaN	NaN	0	1	1	0	1	0
6	1	1	22	70332	1344	0.69053933420218527317	0	1	574.03717499983031303	0	NaN	NaN	0	1	1	0	1	0
6	1	1	23	30391	7441	0.69063192233443260193	0	1	689.19658600134425797	0	NaN	NaN	0	1	1	0	1	0
6	1	1	24	11429	3902	0.6906782881123945117	0	1	538.38844100027927198	0	NaN	NaN	0	1	1	0	1	0
6	1	1	25	71376	8795	0.69072450697422027588	0	1	702.60106200294103473	0	NaN	NaN	0	1	1	0	1	0
6	1	1	26	22718	1840	0.69077081570867449045	0	1	681.93730100028915331	0	NaN	NaN	0	1	1	0	1	0
6	1	1	27	60314	1356	0.69081709382589906454	0	1	603.80156700193765573	0	NaN	NaN	0	1	1	0	1	0
6	1	1	28	17298	5506	0.69086339464411139488	0	1	746.10010899777989835	0	NaN	NaN	0	1	1	0	1	0
6	1	1	29	48618	666	0.69090968091040849686	0	1	739.91917300008935854	0	NaN	NaN	0	1	1	0	1	0
6	1	1	30	13354	8240	0.69095599011052399874	0	1	682.38801199913723394	0	NaN	NaN	0	1	2	0	1	0
6	1	1	31	35670	7232	0.69100227346643805504	0	1	731.68789899864350446	0	NaN	NaN	0	1	1	0	1	0
6	1	1	32	4713	5691	0.6910485782427713275	0	1	714.68218299924046732	0	NaN	NaN	0	1	1	0	1	0
6	1	1	33	31988	6661	0.69109486311208456755	0	1	607.49417700208141468	0	NaN	NaN	0	1	1	0	1	0
6	1	1	34	27318	2400	0.69114116206765174866	0	1	989.0281560001312755	0	NaN	NaN	0	1	2	0	1	0
6	1	1	35	68075	2252	0.69123364635743200779	0	1	879.32127100066281855	0	NaN	NaN	0	1	1	0	1	0
6	1	1	36	44981	612	0.69127994275186210871	0	1	782.41482999874278903	0	NaN	NaN	0	1	1	0	1	0
6	1	1	37	41781	1609	0.69132622983306646347	0	1	1074.9000409996369854	0	NaN	NaN	0	1	1	0	1	0
6	1	1	38	16840	3579	0.69137252145446836948	0	1	789.76619999957620166	0	NaN	NaN	0	1	1	0	1	0
6	1	1	39	25508	1703	0.69141882332041859627	0	1	1012.0239559983019717	0	NaN	NaN	0	1	1	0	1	0
6	1	1	40	30233	9976	0.6914651188999414444	0	1	932.55838100230903365	0	NaN	NaN	0	1	1	0	1	0
6	1	1	41	68209	5770	0.69151141506154090166	0	1	749.84393499835277908	0	NaN	NaN	0	1	1	0	1	0
6	1	1	42	40834	8748	0.69155770400539040565	0	1	758.35123700016993098	0	NaN	NaN	0	1	1	0	1	0
6	1	1	43	6855	9202	0.69160399527754634619	0	1	943.73537299907184206	0	NaN	NaN	0	1	1	0	1	0
6	1	1	44	57007	3123	0.69165029469877481461	0	1	823.31546900240937248	0	NaN	NaN	0	1	1	0	1	0
6	1	1	45	32626	436	0.69169658923055976629	0	1	1102.9338860025745817	0	NaN	NaN	0	1	1	0	1	0
6	1	1	46	39352	4586	0.69178917480167001486	1	1	746.62064200310851447	0	28	NaN	1	1	0	1	2	0
6	1	1	47	69606	1499	0.69183547107968479395	0	1	745.00202000126591884	0	NaN	NaN	0	1	1	0	1	0
6	1	1	48	50463	2872	0.69188175734598189592	0	1	624.54216900005121715	0	NaN	NaN	0	1	1	0	1	0
6	1	1	49	37535	9173	0.69192806270439177752	0	1	710.03995999853941612	0	NaN	NaN	0	1	1	0	1	0
6	1	1	50	52484	2665	0.69197435188107192516	0	1	737.62314399937167764	0	NaN	NaN	0	1	1	0	1	0
6	1	1	51	65382	1045	0.69202063977718353271	0	1	645.41236900186049752	0	NaN	NaN	0	1	1	0	1	0
6	1	1	52	52358	1974	0.69206694082822650671	0	1	783.88369800086366013	0	NaN	NaN	0	1	1	0	1	0
6	1	1	53	44255	2268	0.69211323605850338936	0	1	668.24167999948258512	0	NaN	NaN	0	1	1	0	1	0
6	1	1	54	50606	7771	0.69215952220838516951	0	1	687.61822400119854137	0	NaN	NaN	0	1	2	0	1	0
6	1	1	55	61546	6336	0.69225211755838245153	0	1	680.68803800269961357	0	NaN	NaN	0	1	1	0	1	0
6	1	1	56	53053	727	0.69229841127526015043	0	1	602.32878200258710422	0	NaN	NaN	0	1	1	0	1	0
6	1	1	57	4931	40	0.69234470126684755087	0	1	770.96123899900703691	0	NaN	NaN	0	1	1	0	1	0
6	1	1	58	31910	6000	0.69239100383128970861	0	1	702.98544999968726188	0	NaN	NaN	0	1	1	0	1	0
6	1	1	59	26735	7046	0.6924372940557077527	0	1	827.84840899694245309	0	NaN	NaN	0	1	1	0	1	0
6	1	1	60	67268	1607	0.69248358893673866987	0	1	855.99700900274910964	0	NaN	NaN	0	1	1	0	1	0
6	1	1	61	28476	2132	0.69252988114021718502	0	1	802.2621290001552552	0	NaN	NaN	0	1	1	0	1	0
6	1	1	62	16500	5352	0.69257607299368828535	0	1	684.84624499978963286	0	NaN	NaN	0	1	1	0	1	0
6	1	1	63	34956	2514	0.69262236729264259338	0	1	760.60541099650436081	0	NaN	NaN	0	1	1	0	1	0
6	1	2	1	63007	5730	0.69413377775344997644	0	1	656.60249299980932847	0	NaN	NaN	0	1	1	0	1	0
6	1	2	2	45905	4135	0.69418008322827517986	0	1	642.99249200121266767	0	NaN	NaN	0	1	1	0	1	0
6	1	2	3	66500	5169	0.69422636751551181078	0	1	588.41592400131048635	0	NaN	NaN	0	1	1	0	1	0
6	1	2	4	3791	5821	0.69427266821730881929	0	1	748.20161000025109388	0	NaN	NaN	0	1	1	0	1	0
6	1	2	5	70729	8842	0.69431895320303738117	0	1	748.12174199905712157	0	NaN	NaN	0	1	1	0	1	0
6	1	2	6	45905	4135	0.69436524854972958565	1	1	710.58236400131136179	0	3	NaN	1	1	0	1	2	0
6	1	2	7	23264	4990	0.69441153272055089474	0	1	829.4535749992064666	0	NaN	NaN	0	1	1	0	1	0
6	1	2	8	56532	9955	0.69445784436538815498	0	1	659.77670799838961102	0	NaN	NaN	0	1	1	0	1	0
6	1	2	9	68299	7331	0.69450412923470139503	0	1	691.79788899782579392	0	NaN	NaN	0	1	1	0	1	0
6	1	2	10	44511	3470	0.69455042586196213961	0	1	745.96428500080946833	0	NaN	NaN	0	1	1	0	1	0
6	1	2	11	63294	9913	0.69459671748336404562	0	1	653.81083600004785694	0	NaN	NaN	0	1	1	0	1	0
6	1	2	12	52910	3207	0.69468930456787347794	0	1	665.29167699991376139	0	NaN	NaN	0	1	1	0	1	0
6	1	2	13	7821	5799	0.69473561062477529049	0	1	1001.5232940022542607	0	NaN	NaN	0	1	1	0	1	0
6	1	2	14	52792	4068	0.69478188629727810621	0	1	851.53032399830408394	0	NaN	NaN	0	1	1	0	1	0
6	1	2	15	20405	2204	0.6948281929362565279	0	1	771.85452800040366128	0	NaN	NaN	0	1	1	0	1	0
6	1	2	16	31792	7081	0.69487448222935199738	0	1	754.8053020000224933	0	NaN	NaN	0	1	1	0	1	0
6	1	2	17	12575	3632	0.69492077827453613281	0	1	836.14284899886115454	0	NaN	NaN	0	1	1	0	1	0
6	1	2	18	66416	3444	0.69496706116478890181	0	1	918.00343800059636123	0	NaN	NaN	0	1	1	0	1	0
6	1	2	19	71039	2840	0.6950132675701752305	0	1	860.36565000176778995	0	NaN	NaN	0	1	1	0	1	0
6	1	2	20	43269	1538	0.69505955372005701065	0	1	879.99182699786615558	0	NaN	NaN	0	1	1	0	1	0
6	1	2	21	29860	8951	0.69515214615967124701	0	1	692.41698800033191219	0	NaN	NaN	0	1	1	0	1	0
6	1	2	22	26307	8009	0.69519843545276671648	0	1	891.30953100175247528	0	NaN	NaN	0	1	1	0	1	0
6	1	2	23	68492	5772	0.69524474197532981634	0	1	801.29983200095011853	0	NaN	NaN	0	1	1	0	1	0
6	1	2	24	64072	5200	0.69529103103559464216	0	1	902.10953600035281852	0	NaN	NaN	0	1	1	0	1	0
6	1	2	25	13521	7984	0.6953373180003836751	0	1	1003.039251001609955	0	NaN	NaN	0	1	1	0	1	0
6	1	2	26	22892	9865	0.6953836207976564765	0	1	1187.2316270018927753	0	NaN	NaN	0	1	1	0	1	0
6	1	2	27	71986	7367	0.69542990531772375107	0	1	903.14440200017997995	0	NaN	NaN	0	1	1	0	1	0
6	1	2	28	32626	436	0.69547620892990380526	1	1	981.91274900091229938	0	45	NaN	1	1	0	1	2	0
6	1	2	29	37993	3014	0.69552250299602746964	0	1	812.9991650021111127	0	NaN	NaN	0	1	1	0	1	0
6	1	2	30	13624	3569	0.69556879717856645584	0	1	1245.9542079996026587	0	NaN	NaN	0	1	1	0	1	0
6	1	2	31	49550	6871	0.69566138158552348614	0	1	827.25137600209563971	0	NaN	NaN	0	1	1	0	1	0
6	1	2	32	6261	4263	0.69570767960976809263	0	1	809.29995199767290615	0	NaN	NaN	0	1	1	0	1	0
6	1	2	33	32030	3694	0.69575397204607725143	0	1	691.08166799924219958	0	NaN	NaN	0	1	1	0	1	0
6	1	2	34	8895	5322	0.69580026541370898485	0	1	787.97479900094913319	0	NaN	NaN	0	1	1	0	1	0
6	1	2	35	51747	4061	0.6958465619245544076	0	1	846.48575900064315647	0	NaN	NaN	0	1	1	0	1	0
6	1	2	36	63084	7985	0.69589284795802086592	0	1	837.65674200185458176	0	NaN	NaN	0	1	1	0	1	0
6	1	2	37	1102	6041	0.69593914528377354145	0	1	970.79025899802218191	0	NaN	NaN	0	1	1	0	1	0
6	1	2	38	15951	6142	0.69598543597385287285	0	1	691.24986899987561628	0	NaN	NaN	0	1	1	0	1	0
6	1	2	39	70767	6843	0.69603173795621842146	0	1	875.34555999809526838	0	NaN	NaN	0	1	1	0	1	0
6	1	2	40	37015	7442	0.69607802503742277622	0	1	710.97729000030085444	0	NaN	NaN	0	1	1	0	1	0
6	1	2	41	66496	1108	0.69617062446195632219	0	1	622.06558799880440347	0	NaN	NaN	0	1	1	0	1	0
6	1	2	42	5917	9936	0.69621690723579376936	0	1	1226.8433760000334587	0	NaN	NaN	0	1	1	0	1	0
6	1	2	43	63620	2757	0.69626311212778091431	0	1	617.73083899970515631	0	NaN	NaN	0	1	1	0	1	0
6	1	2	44	60757	9658	0.69630940596107393503	0	1	826.60480900085531175	0	NaN	NaN	0	1	1	0	1	0
6	1	2	45	66500	5169	0.6963557008421048522	1	1	805.70544700094615109	0	41	NaN	1	1	0	1	2	0
6	1	2	46	51023	3376	0.6964019945589825511	0	1	683.61483699845848605	0	NaN	NaN	0	1	1	0	1	0
6	1	2	47	45236	7287	0.69644828024320304394	0	1	808.05454000073950738	0	NaN	NaN	0	1	1	0	1	0
6	1	2	48	17323	5363	0.69649458269122987986	0	1	772.18449800056987442	0	NaN	NaN	0	1	1	0	1	0
6	1	2	49	48566	5834	0.69654087675735354424	0	1	1139.9115000021993183	0	NaN	NaN	0	1	1	0	1	0
6	1	2	50	37814	6448	0.69658716325648128986	0	1	908.12408499914454296	0	NaN	NaN	0	1	1	0	1	0
6	1	2	51	47216	4186	0.69663345906883478165	0	1	803.28427700078464113	0	NaN	NaN	0	1	1	0	1	0
6	1	2	52	15698	9715	0.69667975616175681353	0	1	807.01102400053059682	0	NaN	NaN	0	1	1	0	1	0
6	1	2	53	54468	1430	0.6967723482521250844	0	1	755.90212499810149893	0	NaN	NaN	0	1	1	0	1	0
6	1	2	54	40923	9621	0.69681864208541810513	0	1	749.35269599882303737	0	NaN	NaN	0	1	1	0	1	0
6	1	2	55	47210	7112	0.69686493626795709133	0	1	809.09925199739518575	0	NaN	NaN	0	1	1	0	1	0
6	1	2	56	29573	9845	0.69691122218500822783	0	1	870.83013200026471168	0	NaN	NaN	0	1	1	0	1	0
6	1	2	57	14685	7473	0.69695752707775682211	0	1	808.5220899993146304	0	NaN	NaN	0	1	1	0	1	0
6	1	2	58	6432	60	0.69700381462462246418	0	1	1389.6073640025861096	0	NaN	NaN	0	1	1	0	1	0
6	1	2	59	63620	2757	0.69705011299811303616	1	1	722.59863799990853295	0	15	NaN	1	1	0	1	2	0
6	1	2	60	28325	2704	0.69709640857763588428	0	1	634.37817399972118437	0	NaN	NaN	0	1	1	0	1	0
6	1	2	61	17678	8634	0.69714270532131195068	1	1	979.35486099959234707	0	104	NaN	1	1	0	1	2	0
6	1	2	62	49055	4900	0.69718899042345583439	0	1	676.07616399982362054	0	NaN	NaN	0	1	1	0	1	0
6	1	3	1	31549	7336	0.69869741238653659821	0	1	666.9585689996893052	0	NaN	NaN	0	1	1	0	1	0
6	1	3	2	70336	970	0.69874373776838183403	0	1	698.76935499996761791	0	NaN	NaN	0	1	1	0	1	0
6	1	3	3	23823	4229	0.69878999702632427216	0	1	680.95841099784593098	0	NaN	NaN	0	1	1	0	1	0
6	1	3	4	45962	3770	0.69883629772812128067	0	1	734.40608199962298386	0	NaN	NaN	0	1	1	0	1	0
6	1	3	5	24550	3284	0.69888258748687803745	0	1	648.49095899990061298	0	NaN	NaN	0	1	1	0	1	0
6	1	3	6	54677	6316	0.69892887934111058712	0	1	680.91921299856039695	0	NaN	NaN	0	1	1	0	1	0
6	1	3	7	54599	1266	0.69897517899516969919	0	1	802.46059000273817219	0	NaN	NaN	0	1	1	0	1	0
6	1	3	8	36577	479	0.69902146176900714636	0	1	988.15604899937170558	0	NaN	NaN	0	1	1	0	1	0
6	1	3	9	21215	6277	0.69906776642892509699	0	1	602.14597400045022368	0	NaN	NaN	0	1	1	0	1	0
6	1	3	10	2967	9754	0.6991141163744032383	0	1	830.79659299983177334	0	NaN	NaN	0	1	1	0	1	0
6	1	3	11	20670	7300	0.69920671067666262388	0	1	780.23329400093643926	0	NaN	NaN	0	1	1	0	1	0
6	1	3	12	5483	1104	0.69925293989945203066	0	1	718.57785700194654055	0	NaN	NaN	0	1	1	0	1	0
6	1	3	13	57655	7313	0.69929930521175265312	0	1	970.49484000308439136	0	NaN	NaN	0	1	1	0	1	0
6	1	3	14	70007	3250	0.69934552628546953201	0	1	1062.5670590015943162	0	NaN	NaN	0	1	1	0	1	0
6	1	3	15	25614	6726	0.69939190323930233717	0	1	1051.7783319992304314	0	NaN	NaN	0	1	1	0	1	0
6	1	3	16	20594	8054	0.6994381175609305501	0	1	921.02463400078704581	0	NaN	NaN	0	1	1	0	1	0
6	1	3	17	43933	7613	0.69948449765797704458	0	1	818.01521300076274201	0	NaN	NaN	0	1	1	0	1	0
6	1	3	18	44060	6236	0.69953069859184324741	0	1	849.91247000289149582	0	NaN	NaN	0	1	1	0	1	0
6	1	3	19	15988	2259	0.69957708381116390228	0	1	868.57658599910791963	0	NaN	NaN	0	1	1	0	1	0
6	1	3	20	6211	3968	0.69962328905239701271	0	1	818.1515610012866091	0	NaN	NaN	0	1	1	0	1	0
6	1	3	21	70752	2980	0.69966968148946762085	0	1	821.76835300197126344	0	NaN	NaN	0	1	1	0	1	0
6	1	3	22	17098	9718	0.6997158838203176856	0	1	1120.8636410010512918	0	NaN	NaN	0	1	1	0	1	0
6	1	3	23	19873	1550	0.69976227730512619019	0	1	713.84118000059970655	0	NaN	NaN	0	1	1	0	1	0
6	1	3	24	70752	2980	0.69980847113765776157	1	1	874.55247099933330901	0	2	NaN	1	1	0	1	2	0
6	1	3	25	72764	6274	0.69990106218028813601	0	1	1273.6954149986559059	0	NaN	NaN	0	1	1	0	1	0
6	1	3	26	71351	6666	0.69994725985452532768	0	1	878.88362900048377924	0	NaN	NaN	0	1	1	0	1	0
6	1	3	27	31174	3580	0.69999355159234255552	0	1	734.76665300040622242	0	NaN	NaN	0	1	1	0	1	0
6	1	3	28	57047	791	0.70003986579831689596	0	1	1101.904374998412095	0	NaN	NaN	0	1	1	0	1	0
6	1	3	29	50606	7771	0.70008613518439233303	1	1	1042.0948610008053947	0	99	NaN	1	1	0	1	2	0
6	1	3	30	63084	7985	0.70013243961147964001	1	1	881.1865339994255919	0	55	NaN	1	1	0	1	2	0
6	1	3	31	26456	5651	0.70017872494645416737	0	1	945.21788400015793741	0	NaN	NaN	0	1	1	0	1	0
6	1	3	32	72136	4786	0.70022501808125525713	0	1	903.76362800088827498	0	NaN	NaN	0	1	1	0	1	0
6	1	3	33	52453	5910	0.70027130830567330122	0	1	1016.600017999735428	0	NaN	NaN	0	1	1	0	1	0
6	1	3	34	25521	6588	0.70031761564314365387	0	1	635.61445999948773533	0	NaN	NaN	0	1	1	0	1	0
6	1	3	35	29463	5925	0.700363905169069767	0	1	689.01692899817135185	0	NaN	NaN	0	1	1	0	1	0
6	1	3	36	32483	5699	0.70045649388339370489	0	1	722.90273500038892962	0	NaN	NaN	0	1	1	0	1	0
6	1	3	37	27698	3719	0.7005027777049690485	0	1	1038.4192010023980401	0	NaN	NaN	0	1	1	0	1	0
6	1	3	38	2010	5440	0.70054907782468944788	0	1	1030.9811340011947323	0	NaN	NaN	0	1	1	0	1	0
6	1	3	39	5426	9470	0.70059537456836551428	0	1	684.23286700272001326	0	NaN	NaN	0	1	1	0	1	0
6	1	3	40	36139	1330	0.70064167259261012077	0	1	746.29699100114521571	0	NaN	NaN	0	1	1	0	1	0
6	1	3	41	27006	8935	0.7006879560649394989	0	1	670.45893099930253811	0	NaN	NaN	0	1	1	0	1	0
6	1	3	42	7660	80	0.70073425362352281809	0	1	576.74186599979293533	0	NaN	NaN	0	1	1	0	1	0
6	1	3	43	49053	2159	0.70078054908663034439	0	1	622.83088199910707772	0	NaN	NaN	0	1	1	0	1	0
6	1	3	44	19176	1866	0.70082684303633868694	0	1	634.32909099719836377	0	NaN	NaN	0	1	1	0	1	0
6	1	3	45	27753	5965	0.70091943512670695782	0	1	683.80025200167438015	0	NaN	NaN	0	1	1	0	1	0
6	1	3	46	54562	7512	0.7009657279122620821	0	1	1191.1572440003510565	0	NaN	NaN	0	1	1	0	1	0
6	1	3	47	52746	4025	0.70101202349178493023	0	1	717.32722399974591099	0	NaN	NaN	0	1	1	0	1	0
6	1	3	48	52746	4025	0.70105831674300134182	1	1	802.15666399817564525	0	0	NaN	1	1	0	1	2	0
6	1	3	49	30374	403	0.70110461069270968437	0	1	733.2492749992525205	0	NaN	NaN	0	1	1	0	1	0
6	1	3	50	224	1665	0.70115090487524867058	0	1	680.84043499766266905	0	NaN	NaN	0	1	1	0	1	0
6	1	3	51	57497	9667	0.70119719125796109438	0	1	687.45958100043935701	0	NaN	NaN	0	1	2	0	1	0
6	1	3	52	25960	340	0.70124349277466535568	0	1	883.2948300005227793	0	NaN	NaN	0	1	1	0	1	0
6	1	3	53	835	6692	0.70128969114739447832	0	1	831.8277760008641053	0	NaN	NaN	0	1	1	0	1	0
6	1	3	54	8491	3824	0.70138227753341197968	0	1	911.15498799990746193	0	NaN	NaN	0	1	1	0	1	0
6	1	3	55	9924	1160	0.70142857404425740242	0	1	928.03960899982484989	0	NaN	NaN	0	1	1	0	1	0
6	1	3	56	26735	7046	0.70147486764471977949	1	1	743.59605900099268183	0	121	NaN	1	1	0	1	2	0
6	1	3	57	1777	7852	0.70152115728706121445	0	1	1185.9324809993267991	0	NaN	NaN	0	1	1	0	1	0
6	1	3	58	42367	5291	0.70156745635904371738	0	1	746.59350499860011041	0	NaN	NaN	0	1	1	0	1	0
6	1	3	59	54401	3595	0.70161374518647789955	0	1	778.04377999927964993	0	NaN	NaN	0	1	1	0	1	0
6	1	3	60	60056	2325	0.70166003995109349489	0	1	656.92864900120184757	0	NaN	NaN	0	1	1	0	1	0
6	1	3	61	66140	4285	0.70170633948873728514	0	1	812.75147100313915871	0	NaN	NaN	0	1	1	0	1	0
6	1	3	62	40189	8561	0.70175263297278434038	0	1	753.46219200218911283	0	NaN	NaN	0	1	1	0	1	0
6	1	3	63	37993	3014	0.70179892750456929207	1	1	927.84817800202290528	0	95	NaN	1	1	0	1	2	0
6	1	4	1	30374	403	0.70341631234623491764	1	1	1017.6960839999082964	0	14	NaN	1	1	0	1	2	0
6	1	4	2	44981	612	0.70346261363010853529	1	0	1485.8259570028167218	0	153	NaN	1	0	1	0	1	0
6	1	4	3	45940	4687	0.70350890560075640678	0	1	774.20057199924485758	0	NaN	NaN	0	1	1	0	1	0
6	1	4	4	50548	9425	0.70355521130841225386	1	0	782.44936400005826727	0	170	NaN	1	0	1	0	1	0
6	1	4	5	2155	7750	0.70360148570034652948	0	1	1203.8006859984307084	0	NaN	NaN	0	1	1	0	1	0
6	1	4	6	17127	3194	0.70364780444651842117	0	1	1008.8039980000758078	0	NaN	NaN	0	1	1	0	1	0
6	1	4	7	23869	2628	0.70369408128317445517	0	1	851.8398790001810994	0	NaN	NaN	0	1	1	0	1	0
6	1	4	8	71151	9722	0.70374037872534245253	0	1	888.86667900078464299	0	NaN	NaN	0	1	1	0	1	0
6	1	4	9	40189	8561	0.70378666999749839306	1	1	936.14443100159405731	0	9	NaN	1	1	0	1	2	0
6	1	4	10	7759	2670	0.70383296278305351734	0	1	784.11490199869149365	0	NaN	NaN	0	1	1	0	1	0
6	1	4	11	1312	5109	0.70392554590944200754	0	1	941.98396499996306375	0	NaN	NaN	0	1	1	0	1	0
6	1	4	12	65294	3457	0.70397184090688824654	0	1	770.61220299947308376	0	NaN	NaN	0	1	1	0	1	0
6	1	4	13	17860	9972	0.70401814242359250784	0	1	720.47168199787847698	0	NaN	NaN	0	1	1	0	1	0
6	1	4	14	65415	899	0.70406443439424037933	0	1	937.66522199803148396	0	NaN	NaN	0	1	1	0	1	0
6	1	4	15	58256	5741	0.7041107875993475318	0	1	1118.6874170016380958	0	NaN	NaN	0	1	1	0	1	0
6	1	4	16	23920	3831	0.70415701461024582386	0	1	903.99701299975276925	0	NaN	NaN	0	1	1	0	1	0
6	1	4	17	23586	3799	0.70420337526593357325	0	1	866.81695299921557307	0	NaN	NaN	0	1	1	0	1	0
6	1	4	18	37827	2517	0.70424961124081164598	0	1	882.88310399730107747	0	NaN	NaN	0	1	1	0	1	0
6	1	4	19	55228	6504	0.70429597178008407354	0	1	868.29163099901052192	0	NaN	NaN	0	1	1	0	1	0
6	1	4	20	19224	3548	0.70438856747932732105	0	1	909.25736099961795844	0	NaN	NaN	0	1	1	0	1	0
6	1	4	21	33944	6399	0.70443477923981845379	0	1	861.10002000350505114	0	NaN	NaN	0	1	1	0	1	0
6	1	4	22	59226	3095	0.70448116410989314318	0	1	1128.9702770009171218	0	NaN	NaN	0	1	1	0	1	0
6	1	4	23	6308	9021	0.70452737610321491957	0	1	1971.5818399999989197	0	NaN	NaN	0	1	1	0	1	0
6	1	4	24	33434	9121	0.7045737589942291379	0	1	755.73879999865312129	0	NaN	NaN	0	1	1	0	1	0
6	1	4	25	1777	7852	0.70461996365338563919	1	1	865.21852300211321563	0	30	NaN	1	1	0	1	2	0
6	1	4	26	66496	1108	0.70466635434422641993	1	1	804.15488799917511642	0	109	NaN	1	1	0	1	2	0
6	1	4	27	22414	8441	0.70471255236770957708	0	1	702.68983800269779749	0	NaN	NaN	0	1	1	0	1	0
6	1	4	28	24016	9826	0.70475895050913095474	0	0	3015.4831159998138901	1	NaN	NaN	0	0	1	1	2	0
6	1	4	29	33956	7559	0.70480513316579163074	0	1	709.1306980000808835	0	NaN	NaN	0	1	1	0	1	0
6	1	4	30	18384	2880	0.70489772909786552191	0	0	1170.1785169971117284	0	NaN	NaN	0	0	0	1	2	0
6	1	4	31	56172	9949	0.70494413399137556553	0	1	862.72345099860103801	0	NaN	NaN	0	1	1	0	1	0
6	1	4	32	30391	7441	0.70499031012877821922	1	0	1503.7140489985176828	0	196	NaN	1	0	1	0	1	0
6	1	4	33	59903	4751	0.70503661001566797495	0	1	730.91221499998937361	0	NaN	NaN	0	1	1	0	1	0
6	1	4	34	14356	5679	0.7050828093197196722	0	1	928.93647600067197345	0	NaN	NaN	0	1	1	0	1	0
6	1	4	35	22892	9865	0.70512912038248032331	1	1	1075.6200809992151335	0	133	NaN	1	1	0	1	2	0
6	1	4	36	23626	1645	0.70517539407592266798	0	1	870.92861199926119298	0	NaN	NaN	0	1	1	0	1	0
6	1	4	37	54599	1266	0.70522170886397361755	1	1	909.03475999948568642	0	92	NaN	1	1	0	1	2	0
6	1	4	38	46786	1549	0.7052679798798635602	0	1	833.31042700228863396	0	NaN	NaN	0	1	1	0	1	0
6	1	4	39	23823	4229	0.70531427860260009766	1	1	770.38926299792365171	0	98	NaN	1	1	0	1	2	0
6	1	4	40	11461	9562	0.70536057371646165848	0	1	1414.1382859997975174	0	NaN	NaN	0	1	1	0	1	0
6	1	4	41	12525	6187	0.70545315358322113752	0	1	818.40167900008964352	0	NaN	NaN	0	1	1	0	1	0
6	1	4	42	40834	8748	0.70549945649690926075	1	1	1303.2738110014179256	0	187	NaN	1	1	0	1	2	0
6	1	4	43	22572	8374	0.70554574462585151196	0	0	1769.1451860009692609	0	NaN	NaN	0	0	0	1	2	0
6	1	4	44	42172	559	0.70559203426819294691	0	1	873.24093200004426762	0	NaN	NaN	0	1	1	0	1	0
6	1	4	45	5603	53	0.70563834207132458687	0	1	749.71613700108719058	0	NaN	NaN	0	1	1	0	1	0
6	1	4	46	2608	8043	0.70568463299423456192	0	1	841.26743500019074418	0	NaN	NaN	0	1	1	0	1	0
6	1	4	47	40164	8972	0.70573093078564852476	0	1	929.39237699829391204	0	NaN	NaN	0	1	1	0	1	0
6	1	4	48	16409	5860	0.70577721239533275366	0	1	1553.9383389987051487	0	NaN	NaN	0	1	1	0	1	0
6	1	4	49	7183	3756	0.70582351519260555506	0	1	741.30284100101562217	0	NaN	NaN	0	1	1	0	1	0
6	1	4	50	31959	4734	0.70586980402003973722	0	1	981.13377499976195395	0	NaN	NaN	0	1	1	0	1	0
6	1	4	51	32700	8985	0.70591609564144164324	0	1	986.37569200218422338	0	NaN	NaN	0	1	1	0	1	0
6	1	4	52	14507	5862	0.70596239215228706598	0	1	3477.9528789986215997	1	NaN	NaN	0	1	1	1	1	0
6	1	4	53	68325	1681	0.70605498622171580791	0	1	1608.6258690011163708	0	NaN	NaN	0	1	1	0	1	0
6	1	4	54	20594	8054	0.70610127958934754133	1	0	1019.3951559995184653	0	100	NaN	1	0	1	0	1	0
6	1	4	55	1891	1983	0.70614756923168897629	0	1	981.02944800120894797	0	NaN	NaN	0	1	1	0	1	0
6	1	4	56	45298	7973	0.70619386283215135336	0	1	777.11423100117826834	0	NaN	NaN	0	1	1	0	1	0
6	1	4	57	36265	2469	0.70624016353394836187	0	0	1449.9034039981779642	0	NaN	NaN	0	0	0	1	2	0
6	1	4	58	21602	265	0.70628645655233412981	0	1	562.15339899790706113	0	NaN	NaN	0	1	1	0	1	0
6	1	4	59	62303	860	0.70633264956995844841	0	1	748.53212399830226786	0	NaN	NaN	0	1	1	0	1	0
6	1	4	60	39770	3951	0.70637894049286842346	0	1	777.80029800123884343	0	NaN	NaN	0	1	1	0	1	0
6	1	4	61	66416	3444	0.70642524305731058121	1	1	819.14742799926898442	0	167	NaN	1	1	0	1	2	0
6	1	4	62	5302	45	0.70647153619211167097	0	1	1002.8062220007996075	0	NaN	NaN	0	1	1	0	1	0
6	1	5	1	15493	187	0.70891177223529666662	0	1	845.15740400092909113	0	NaN	NaN	0	1	1	0	1	0
6	1	5	2	19724	6960	0.70895806606858968735	0	1	1232.8032999976130668	0	NaN	NaN	0	1	1	0	1	0
6	1	5	3	35099	9857	0.70900435629300773144	0	0	783.5772860016732011	0	NaN	NaN	0	0	0	1	2	0
6	1	5	4	30163	9133	0.70905065361876040697	0	1	749.21861400071065873	0	NaN	NaN	0	1	1	0	1	0
6	1	5	5	3775	8620	0.70909694838337600231	0	1	1046.3279069990676362	0	NaN	NaN	0	1	1	0	1	0
6	1	5	6	25288	323	0.70914324431214481592	0	1	649.78179500030819327	0	NaN	NaN	0	1	1	0	1	0
6	1	5	7	45992	7974	0.70918953756336122751	0	1	902.90813799947500229	0	NaN	NaN	0	1	1	0	1	0
6	1	5	8	59223	3060	0.70923582930117845535	0	1	791.83492800075327978	0	NaN	NaN	0	1	1	0	1	0
6	1	5	9	4003	3271	0.70928212511353194714	0	1	1025.667329002317274	0	NaN	NaN	0	1	1	0	1	0
6	1	5	10	8064	5081	0.70932841859757900238	0	1	1207.3704330032342114	0	NaN	NaN	0	1	1	0	1	0
6	1	5	11	34492	4741	0.70942100603133440018	0	1	705.55237300141016021	0	NaN	NaN	0	1	1	0	1	0
6	1	5	12	13427	1085	0.70946729881688952446	0	1	684.32670299807796255	0	NaN	NaN	0	1	1	0	1	0
6	1	5	13	27519	6570	0.70951359369792044163	0	1	887.51566399878356606	0	NaN	NaN	0	1	1	0	1	0
6	1	5	14	31959	4734	0.70955988974310457706	1	1	907.39079400009359233	0	25	NaN	1	1	0	1	2	0
6	1	5	15	21602	265	0.7096061754273250699	1	1	871.87687200275831856	0	18	NaN	1	1	0	1	2	0
6	1	5	16	70752	2980	0.70965247577987611294	1	1	814.78549799794564024	0	116	119	1	1	0	1	2	0
6	1	5	17	23513	6150	0.70969876402523368597	0	1	1129.4908230011060368	0	NaN	NaN	0	1	1	0	1	0
6	1	5	18	6559	66	0.70974506007041782141	0	1	838.24558200285537168	0	NaN	NaN	0	1	1	0	1	0
6	1	5	19	32552	5550	0.70979136100504547358	0	1	902.89875500093330629	0	NaN	NaN	0	1	1	0	1	0
6	1	5	20	49940	6106	0.70983765390701591969	0	1	788.40129200034425594	0	NaN	NaN	0	1	1	0	1	0
6	1	5	21	45298	7973	0.70988393994048237801	1	1	770.50084800066542812	0	26	NaN	1	1	0	1	2	0
6	1	5	22	36313	4401	0.70993024448398500681	0	1	1186.5756369988957886	0	NaN	NaN	0	1	1	0	1	0
6	1	5	23	39690	2727	0.71002283215057104826	0	1	1402.7113119991554413	0	NaN	NaN	0	1	1	0	1	0
6	1	5	24	41119	6036	0.71006911701988428831	0	1	829.68730399807100184	0	NaN	NaN	0	1	1	0	1	0
6	1	5	25	51500	7741	0.7101153181865811348	0	1	890.3275299999222625	0	NaN	NaN	0	1	1	0	1	0
6	1	5	26	24689	2387	0.71016160945873707533	0	1	1651.5506930008996278	0	NaN	NaN	0	1	1	0	1	0
6	1	5	27	55433	7130	0.71020790992770344019	0	1	843.44010100176092237	0	NaN	NaN	0	1	1	0	1	0
6	1	5	28	3746	6647	0.71025420597288757563	0	1	715.80814099797862582	0	NaN	NaN	0	1	1	0	1	0
6	1	5	29	29463	5925	0.71030049875844269991	1	1	987.27956700167851523	0	118	NaN	1	1	0	1	2	0
6	1	5	30	51562	3686	0.71034678665455430746	0	1	786.090202000195859	0	NaN	NaN	0	1	1	0	1	0
6	1	5	31	70336	970	0.71039308060426265001	1	1	929.56563400002778508	0	153	NaN	1	1	0	1	2	0
6	1	5	32	16724	201	0.71043938212096691132	0	1	1055.3312550000555348	0	NaN	NaN	0	1	1	0	1	0
6	1	5	33	45940	4687	0.71048567350953817368	1	1	718.8672439988295082	0	91	NaN	1	1	0	1	2	0
6	1	5	34	24689	2387	0.71057826257310807705	1	1	767.04581299782148562	0	7	NaN	1	1	0	1	2	0
6	1	5	35	1942	6349	0.71062455768696963787	0	1	846.52149900284712203	0	NaN	NaN	0	1	1	0	1	0
6	1	5	36	65294	3457	0.7106708562932908535	1	1	846.03622999929939397	0	85	NaN	1	1	0	1	2	0
6	1	5	37	17904	5237	0.71071713801939040422	0	1	2052.6274620024196338	0	NaN	NaN	0	1	1	0	1	0
6	1	5	38	17904	5237	0.71076343965250998735	1	1	702.74966800207039341	0	0	NaN	1	1	0	1	2	0
6	1	5	39	66500	5169	0.71080973034258931875	1	1	865.20332700092694722	0	180	222	1	1	0	1	2	0
6	1	5	40	49280	2284	0.71085602452512830496	0	1	1108.0766609993588645	0	NaN	NaN	0	1	1	0	1	0
6	1	5	41	8817	4210	0.71090232289861887693	0	1	936.36934900132473558	0	NaN	NaN	0	1	1	0	1	0
6	1	5	42	15136	3597	0.7109486130066215992	0	0	1390.8609839963901322	0	NaN	NaN	0	0	0	1	2	0
6	1	5	43	26873	2768	0.71104120148811489344	0	1	982.10292300063883886	0	NaN	NaN	0	1	1	0	1	0
6	1	5	44	59968	5714	0.71108749206177890301	0	1	1213.1877760002680589	0	NaN	NaN	0	1	1	0	1	0
6	1	5	45	1777	7852	0.71113378519657999277	1	1	853.02908199810190126	0	81	112	1	1	0	1	2	0
6	1	5	46	2965	9788	0.71118007937911897898	0	1	733.50876699987566099	0	NaN	NaN	0	1	1	0	1	0
6	1	5	47	29060	9094	0.71122638368979096413	0	1	936.26451200179872103	0	NaN	NaN	0	1	1	0	1	0
6	1	5	48	71971	2607	0.71127258450724184513	0	1	822.3246500019740779	0	NaN	NaN	0	1	1	0	1	0
6	1	5	49	3684	9272	0.71131886949297040701	0	1	777.29951700166566297	0	NaN	NaN	0	1	1	0	1	0
6	1	5	50	50085	5192	0.71136516390834003687	0	1	1461.596765999274794	0	NaN	NaN	0	1	1	0	1	0
6	1	5	51	33959	7185	0.71141146181616932154	0	1	1102.2226599998248275	0	NaN	NaN	0	1	1	0	1	0
6	1	5	52	13098	6581	0.71145775157492607832	0	1	941.0734340017370414	0	NaN	NaN	0	1	1	0	1	0
6	1	5	53	19300	1492	0.71150404622312635183	0	1	689.44718000057036988	0	NaN	NaN	0	1	1	0	1	0
6	1	5	54	58694	2196	0.71155033994000405073	0	1	916.37174700008472428	0	NaN	NaN	0	1	1	0	1	0
6	1	5	55	49207	7998	0.71164293168112635612	0	1	703.22985999882803299	0	NaN	NaN	0	1	1	0	1	0
6	1	5	56	40576	531	0.71168922691140323877	0	1	725.88597100184415467	0	NaN	NaN	0	1	1	0	1	0
6	1	5	57	31440	6520	0.71173552144318819046	0	1	1545.7569419995706994	0	NaN	NaN	0	1	1	0	1	0
6	1	5	58	41089	3898	0.7117818162078037858	0	1	903.05910199822392315	0	NaN	NaN	0	1	1	0	1	0
6	1	5	59	51872	9743	0.71182810352183878422	0	1	702.84461499977624044	0	NaN	NaN	0	1	1	0	1	0
6	1	5	60	1805	2430	0.71187440282665193081	0	1	829.0163040001061745	0	NaN	NaN	0	1	1	0	1	0
6	1	5	61	32030	3694	0.71192069759126752615	1	1	1383.6450960006914102	0	214	NaN	1	1	0	1	2	0
6	1	5	62	19224	3548	0.71196698304265737534	1	1	730.18245900311740115	0	103	NaN	1	1	0	1	2	0
6	1	5	63	13289	1939	0.71201328560709953308	0	1	1146.4609759968880098	0	NaN	NaN	0	1	1	0	1	0
6	1	6	1	37157	1129	0.71350492013152688742	0	1	745.43986199932987802	0	NaN	NaN	0	1	1	0	1	0
6	1	6	2	56680	3996	0.7135512159438803792	0	1	702.15626600111136213	0	NaN	NaN	0	1	1	0	1	0
6	1	6	3	6257	5160	0.71359750325791537762	0	0	2660.6905070002540015	1	NaN	NaN	0	0	1	1	2	0
6	1	6	4	34029	2539	0.71364381234161555767	0	1	670.88154999873950146	0	NaN	NaN	0	1	1	0	1	0
6	1	6	5	34574	5155	0.71369009476620703936	0	1	730.29445100110024214	0	NaN	NaN	0	1	1	0	1	0
6	1	6	6	23554	3647	0.71373641211539506912	0	1	736.13827399822184816	0	NaN	NaN	0	1	1	0	1	0
6	1	6	7	14161	7233	0.71378267789259552956	0	1	992.45312700077192858	0	NaN	NaN	0	1	1	0	1	0
6	1	6	8	68492	5772	0.71382900665048509836	1	1	770.56674900086363778	0	234	NaN	1	1	0	1	2	0
6	1	6	9	23065	5761	0.71387526125181466341	0	1	828.42772899675765075	0	NaN	NaN	0	1	1	0	1	0
6	1	6	10	36103	9964	0.71392160316463559866	0	1	987.49732600117567927	0	NaN	NaN	0	1	1	0	1	0
6	1	6	11	35913	3903	0.71396785438992083073	0	1	822.48317899939138442	0	NaN	NaN	0	1	1	0	1	0
6	1	6	12	38468	9657	0.71401420014444738626	0	1	672.77131300215842202	0	NaN	NaN	0	1	1	0	1	0
6	1	6	13	53013	1808	0.71410678199026733637	0	1	960.45907200095825829	0	NaN	NaN	0	1	1	0	1	0
6	1	6	14	13884	3036	0.71415303519461303949	0	1	1144.1159360001620371	0	NaN	NaN	0	1	1	0	1	0
6	1	6	15	41444	9484	0.71419937792234122753	0	1	898.47412399831227958	0	NaN	NaN	0	1	1	0	1	0
6	1	6	16	52746	4025	0.71424561541061848402	1	1	977.42554299838957377	0	155	156	1	1	0	1	2	0
6	1	6	17	10229	6068	0.71429197385441511869	0	1	741.59271300231921487	0	NaN	NaN	0	1	1	0	1	0
6	1	6	18	15894	5418	0.71433820831589400768	0	1	731.30447500079753809	0	NaN	NaN	0	1	1	0	1	0
6	1	6	19	16485	4005	0.71438456897158175707	0	1	715.69123999870498665	0	NaN	NaN	0	1	1	0	1	0
6	1	6	20	40673	9960	0.71443080483004450798	0	1	764.91348499985178933	0	NaN	NaN	0	1	1	0	1	0
6	1	6	21	25614	6726	0.71447716804686933756	1	1	685.6008450013177935	0	193	NaN	1	1	0	1	2	0
6	1	6	22	39218	2504	0.71452339028473943472	0	1	1022.3655339977995027	0	NaN	NaN	0	1	1	0	1	0
6	1	6	23	24758	2735	0.71461597492452710867	0	1	1222.1335639987955801	0	NaN	NaN	0	1	1	0	1	0
6	1	6	24	18869	8174	0.71466235804837197065	0	1	814.98595599987311289	0	NaN	NaN	0	1	1	0	1	0
6	1	6	25	13698	7260	0.71470856282394379377	0	1	1419.1253649987629615	0	NaN	NaN	0	1	1	0	1	0
6	1	6	26	50419	5558	0.71475487132556736469	0	1	927.98455499723786488	0	NaN	NaN	0	1	1	0	1	0
6	1	6	27	57680	7780	0.71480114664882421494	0	1	1320.084939001390012	0	NaN	NaN	0	1	1	0	1	0
6	1	6	28	62730	1014	0.71484746201895177364	0	1	2050.1061830000253394	0	NaN	NaN	0	1	1	0	1	0
6	1	6	29	27907	3638	0.71489374409429728985	0	1	764.51927300149691291	0	NaN	NaN	0	1	1	0	1	0
6	1	6	30	70767	6843	0.71494004642590880394	1	1	825.49505300266901031	0	240	NaN	1	1	0	1	2	0
6	1	6	31	30579	9313	0.71498633164446800947	0	1	1054.8227029976260383	0	NaN	NaN	0	1	2	0	1	0
6	1	6	32	8978	1702	0.71503251756075769663	0	1	904.29085600044345483	0	NaN	NaN	0	1	1	0	1	0
6	1	6	33	45596	616	0.71507882548030465841	0	1	739.09540099703008309	0	NaN	NaN	0	1	1	0	1	0
6	1	6	34	32470	3640	0.71512511407490819693	0	1	1104.4692569994367659	0	NaN	NaN	0	1	1	0	1	0
6	1	6	35	6517	8318	0.71521770535036921501	0	1	1124.4258389997412451	0	NaN	NaN	0	1	1	0	1	0
6	1	6	36	67172	9017	0.71526399592403322458	0	1	773.54378300151438452	0	NaN	NaN	0	1	1	0	1	0
6	1	6	37	5259	9347	0.71531028859317302704	0	1	801.85992599945166148	0	NaN	NaN	0	1	1	0	1	0
6	1	6	38	3839	5238	0.71535658650100231171	0	1	1701.9177939982910175	0	NaN	NaN	0	1	1	0	1	0
6	1	6	39	60264	6246	0.71540287404786795378	0	1	829.84855399990919977	0	NaN	NaN	0	1	1	0	1	0
6	1	6	40	17127	3194	0.71544916986022144556	1	1	850.61351799959084019	0	158	NaN	1	1	0	1	2	0
6	1	6	41	53053	727	0.71549546951428055763	1	1	722.66707000017049722	0	297	NaN	1	1	0	1	2	0
6	1	6	42	37467	6311	0.7155417631147429347	0	1	902.98050300043541938	0	NaN	NaN	0	1	1	0	1	0
6	1	6	43	27006	8935	0.71558805857785046101	1	1	776.95072500137030147	0	189	NaN	1	1	0	1	2	0
6	1	6	44	9918	116	0.71568064251914620399	0	1	1878.7158750019443687	0	NaN	NaN	0	1	1	0	1	0
6	1	6	45	30779	2297	0.71572694077622145414	0	1	756.68196400147280656	0	NaN	NaN	0	1	1	0	1	0
6	1	6	46	71490	3293	0.715773235191591084	0	1	733.12411400183918886	0	NaN	NaN	0	1	1	0	1	0
6	1	6	47	26599	351	0.71581952064298093319	0	1	1102.9250499996123835	0	NaN	NaN	0	1	1	0	1	0
6	1	6	48	72293	2336	0.7158658183179795742	0	1	764.03144100186182186	0	NaN	NaN	0	1	1	0	1	0
6	1	6	49	21602	265	0.71591211541090160608	1	1	665.13272899828734808	0	96	115	1	1	0	1	2	0
6	1	6	50	56172	9949	0.7159584100591018796	1	1	622.70050699953571893	0	143	NaN	1	1	0	1	2	0
6	1	6	51	15894	5418	0.71600470482371747494	1	1	645.74202199946739711	0	32	NaN	1	1	0	1	2	0
6	1	6	52	68221	6017	0.71605100028682500124	0	1	1147.7494259997911286	0	NaN	NaN	0	1	1	0	1	0
6	1	6	53	7153	8280	0.71614358224906027317	0	1	736.52884900002391078	0	NaN	NaN	0	1	1	0	1	0
6	1	6	54	67274	9965	0.71618988469708710909	0	0	2571.3933209990500472	1	NaN	NaN	0	0	1	1	2	0
6	1	6	55	39329	8516	0.71623617643490433693	0	1	614.07063599835964851	0	NaN	NaN	0	1	1	0	1	0
6	1	6	56	20594	8054	0.71628246852196753025	1	1	785.51734999928157777	0	126	227	1	1	0	1	2	0
6	1	6	57	54599	1266	0.7163287637522444129	1	1	734.47810200013918802	0	144	237	1	1	0	1	2	0
6	1	6	58	51768	8093	0.71637496142648160458	0	1	735.75732999961473979	0	NaN	NaN	0	1	1	0	1	0
6	1	6	59	39943	8498	0.71642125502694398165	0	1	730.60739100037608296	0	NaN	NaN	0	1	1	0	1	0
6	1	6	60	36265	2469	0.71646755293477326632	1	1	688.66943999819341116	0	127	NaN	1	1	0	1	2	0
6	1	6	61	60306	830	0.71651384548749774694	0	1	902.14829799879225902	0	NaN	NaN	0	1	1	0	1	0
6	1	6	62	72764	6274	0.71656013315077871084	1	0	890.16235199960647151	0	224	NaN	1	0	1	0	1	0
6	1	7	1	18869	8174	0.71814599109347909689	1	1	852.64765499960049056	0	38	NaN	1	1	0	1	2	0
6	1	7	2	55843	4615	0.71819235908333212137	0	1	843.7928140010626521	0	NaN	NaN	0	1	1	0	1	0
6	1	7	3	16158	2736	0.71823857713025063276	0	0	965.23021499888272956	0	NaN	NaN	0	0	0	1	2	0
6	1	7	4	64072	5200	0.71828495524823665619	1	1	2329.4374469987815246	1	291	NaN	1	1	1	1	2	0
6	1	7	5	34922	2330	0.71833116339985281229	0	1	881.47397600187105127	0	NaN	NaN	0	1	1	0	1	0
6	1	7	6	46053	4470	0.71837754035368561745	0	1	905.03231699767638929	0	NaN	NaN	0	1	1	0	1	0
6	1	7	7	52792	4068	0.71842374897096306086	1	1	1087.7296300022862852	0	304	NaN	1	1	0	1	2	0
6	1	7	8	47404	5858	0.71847015060484409332	0	1	979.74907800016808324	0	NaN	NaN	0	1	1	0	1	0
6	1	7	9	43269	1538	0.71851634210906922817	1	1	687.02920400028233416	0	300	NaN	1	1	0	1	2	0
6	1	7	10	16506	6560	0.71860893233679234982	0	1	769.89893299833056517	0	NaN	NaN	0	1	1	0	1	0
6	1	7	11	32553	8283	0.7186553305946290493	0	1	1002.0476289973885287	0	NaN	NaN	0	1	1	0	1	0
6	1	7	12	6257	5160	0.71870151488110423088	1	1	734.90099400078179315	0	70	NaN	1	1	0	1	2	0
6	1	7	13	71490	3293	0.71874792734161019325	1	1	826.50059099978534505	0	28	NaN	1	1	0	1	2	0
6	1	7	14	27753	5965	0.71879411186091601849	1	1	949.85135000024456531	0	218	NaN	1	1	0	1	2	0
6	1	7	15	28908	2408	0.7188405240885913372	0	1	747.83291000130702741	0	NaN	NaN	0	1	1	0	1	0
6	1	7	16	57497	9667	0.71888660045806318521	1	1	867.24467699968954548	0	214	NaN	1	1	0	1	2	0
6	1	7	17	19176	1866	0.71893290290609002113	1	0	779.65270899949246086	0	222	NaN	1	0	1	0	1	0
6	1	7	18	2352	3342	0.71897918276954442263	0	1	879.5306319989322219	0	NaN	NaN	0	1	1	0	1	0
6	1	7	19	62730	1014	0.71902547311037778854	1	1	703.34329800243722275	0	52	NaN	1	1	0	1	2	0
6	1	7	20	34447	7951	0.71911806950811296701	0	1	845.91259900116710924	0	NaN	NaN	0	1	1	0	1	0
6	1	7	21	13985	4784	0.71916435810271650553	0	1	1003.2043090031947941	0	NaN	NaN	0	1	1	0	1	0
6	1	7	22	21080	5660	0.71921065181959420443	0	1	964.30650000183959492	0	NaN	NaN	0	1	1	0	1	0
6	1	7	23	67784	8315	0.71925695240497589111	0	1	724.29153399934875779	0	NaN	NaN	0	1	1	0	1	0
6	1	7	24	67886	1098	0.71930324553977698088	0	1	605.1491220023308415	0	NaN	NaN	0	1	1	0	1	0
6	1	7	25	46122	1431	0.71934953366871923208	0	1	609.57127699657576159	0	NaN	NaN	0	1	1	0	1	0
6	1	7	26	47404	5858	0.71939583052881062031	1	1	836.72314399882452562	0	17	NaN	1	1	0	1	2	0
6	1	7	27	64157	2848	0.7194421298336237669	0	1	774.7539830015739426	0	NaN	NaN	0	1	1	0	1	0
6	1	7	28	4787	36	0.71948842238634824753	0	1	818.65620499957003631	0	NaN	NaN	0	1	1	0	1	0
6	1	7	29	59258	6866	0.71953471878077834845	0	1	702.59937599985278212	0	NaN	NaN	0	1	1	0	1	0
6	1	7	30	67886	1098	0.71958101261407136917	1	1	668.29618399788159877	0	5	NaN	1	1	0	1	2	0
6	1	7	31	67784	8315	0.71962730167433619499	1	1	702.71194000088144094	0	7	NaN	1	1	0	1	2	0
6	1	7	32	52437	5663	0.7196735988836735487	0	1	873.08756199854542501	0	NaN	NaN	0	1	1	0	1	0
6	1	7	33	13736	2218	0.71971989958547055721	0	1	866.13481500171474181	0	NaN	NaN	0	1	1	0	1	0
6	1	7	34	47404	5858	0.71981248084921389818	1	1	741.36091200125520118	0	7	25	1	1	0	1	2	0
6	1	7	35	3684	9272	0.71985877363476902246	1	1	743.05568199997651391	0	110	NaN	1	1	0	1	2	0
6	1	7	36	10139	8216	0.71990506479050964117	0	1	877.96334799713804387	0	NaN	NaN	0	1	1	0	1	0
6	1	7	37	11085	7520	0.71995135967154055834	0	1	675.94491400086553767	0	NaN	NaN	0	1	1	0	1	0
6	1	7	38	36051	5919	0.71999765560030937195	0	0	2673.9269620011327788	1	NaN	NaN	0	0	1	1	2	0
6	1	7	39	29914	2451	0.72004395513795316219	0	1	630.91941899983794428	0	NaN	NaN	0	1	1	0	1	0
6	1	7	40	50703	9575	0.72009025281295180321	0	1	578.23855300011928193	0	NaN	NaN	0	1	1	0	1	0
6	1	7	41	34922	2330	0.72013653919566422701	1	1	707.78392700231052004	0	35	NaN	1	1	0	1	2	0
6	1	7	42	41423	7310	0.72018283198121935129	0	0	1141.5946759989310522	0	NaN	NaN	0	0	0	1	2	0
6	1	7	43	34251	8175	0.72022902534808963537	0	1	1021.4978629992401693	0	NaN	NaN	0	1	1	0	1	0
6	1	7	44	15988	2259	0.7202753282617777586	1	1	831.1456170013116207	0	274	NaN	1	1	0	1	2	0
6	1	7	45	36313	4401	0.72032161697279661894	1	0	714.69976499793119729	0	147	NaN	1	0	1	0	1	0
6	1	7	46	11429	3902	0.72041421441826969385	1	0	1002.4172220000764355	0	396	NaN	1	0	1	0	1	0
6	1	7	47	32797	9335	0.72046050557401031256	0	1	1108.5316940007032827	0	NaN	NaN	0	1	1	0	1	0
6	1	7	48	46264	2760	0.72050679964013397694	0	1	685.37377100074081682	0	NaN	NaN	0	1	1	0	1	0
6	1	7	49	68221	6017	0.72055309056304395199	1	1	766.5849309996701777	0	58	NaN	1	1	0	1	2	0
6	1	7	50	40822	8170	0.72059938556049019098	0	0	1276.8098779997671954	0	NaN	NaN	0	0	0	1	2	0
6	1	7	51	47480	5262	0.72064567345660179853	0	1	786.30079499998828396	0	NaN	NaN	0	1	1	0	1	0
6	1	7	52	47480	5262	0.72069197858218103647	1	1	917.37931600073352456	0	0	NaN	1	1	0	1	2	0
6	1	7	53	72293	2336	0.72073826915584504604	1	1	1689.2032970026775729	0	66	NaN	1	1	0	1	2	0
6	1	7	54	42445	3862	0.72078455786686390638	0	1	831.87159599765436724	0	NaN	NaN	0	1	1	0	1	0
6	1	7	55	15357	8482	0.72087715263478457928	0	1	753.01087299885693938	0	NaN	NaN	0	1	1	0	1	0
6	1	7	56	10182	9525	0.72092344681732356548	0	1	1249.8106349994486663	0	NaN	NaN	0	1	1	0	1	0
6	1	7	57	51218	3450	0.72096973669249564409	0	1	637.87163500091992319	0	NaN	NaN	0	1	1	0	1	0
6	1	7	58	835	6692	0.7210160265676677227	1	1	848.45130199755658396	0	254	NaN	1	1	0	1	2	0
6	1	7	59	19182	230	0.72106232948135584593	0	1	687.21493500197539106	0	NaN	NaN	0	1	1	0	1	0
6	1	7	60	68138	5967	0.72110862156841903925	0	1	637.62227299957885407	0	NaN	NaN	0	1	1	0	1	0
6	1	7	61	21500	7856	0.72115491132717579603	0	1	603.58199099937337451	0	NaN	NaN	0	1	1	0	1	0
6	1	7	62	56344	8586	0.72120120993349701166	0	1	683.50227399787399918	0	NaN	NaN	0	1	2	0	1	0
6	1	7	63	55433	7130	0.72124750632792711258	1	0	731.21339100180193782	0	160	NaN	1	0	1	0	1	0
6	1	8	1	42770	8109	0.72287068364676088095	0	1	1390.7440170005429536	0	NaN	NaN	0	1	1	0	1	0
6	1	8	2	6559	66	0.72291697573382407427	1	1	1014.0847709990339354	0	171	NaN	1	1	0	1	2	0
6	1	8	3	72081	992	0.72296326665673404932	0	1	739.6457380018546246	0	NaN	NaN	0	1	1	0	1	0
6	1	8	4	21496	2986	0.72300955792888998985	0	1	1603.5029330014367588	0	NaN	NaN	0	1	1	0	1	0
6	1	8	5	1476	1192	0.72305585618596524	0	1	1019.5439950002764817	0	NaN	NaN	0	1	1	0	1	0
6	1	8	6	662	5568	0.7231021481566131115	0	1	803.83500999960233457	0	NaN	NaN	0	1	1	0	1	0
6	1	8	7	40091	2203	0.72314843989443033934	0	1	748.47821500225109048	0	NaN	NaN	0	1	1	0	1	0
6	1	8	8	33959	7185	0.72319474257528781891	1	1	880.06558200140716508	0	144	NaN	1	1	0	1	2	0
6	1	8	9	8514	4001	0.72324103128630667925	0	1	1050.570199000503635	0	NaN	NaN	0	1	1	0	1	0
6	1	8	10	66140	4285	0.72333362989593297243	1	1	1272.9834530000516679	1	261	NaN	1	1	1	1	2	0
6	1	8	11	36068	475	0.72337991406675428152	0	1	919.1362659985315986	0	NaN	NaN	0	1	1	0	1	0
6	1	8	12	31549	7336	0.72342621313873678446	1	0	677.16123500213143416	0	323	NaN	1	0	1	0	1	0
6	1	8	13	70266	1800	0.7234725035959854722	0	1	703.89893099854816683	0	NaN	NaN	0	1	1	0	1	0
6	1	8	14	33434	9121	0.72351879684720188379	1	1	802.3454799986211583	0	239	NaN	1	1	0	1	2	0
6	1	8	15	68487	7428	0.72356509091332554817	0	1	862.39342499902704731	0	NaN	NaN	0	1	1	0	1	0
6	1	8	16	52437	5663	0.7236113938270136714	1	1	941.29751799846417271	0	46	NaN	1	1	0	1	2	0
6	1	8	17	18195	6579	0.72365767916198819876	0	1	712.97139200032688677	0	NaN	NaN	0	1	1	0	1	0
6	1	8	18	34995	7917	0.72370409162249416113	0	1	679.55002099915873259	0	NaN	NaN	0	1	1	0	1	0
6	1	8	19	7183	3756	0.72375038883183151484	1	1	765.1816709985723719	0	219	NaN	1	1	0	1	2	0
6	1	8	20	49940	6106	0.72384286380838602781	1	1	783.9887279988033697	0	187	NaN	1	1	0	1	2	0
6	1	8	21	39525	2186	0.72388915601186454296	0	0	887.73556999876745977	0	NaN	NaN	0	0	0	1	2	0
6	1	8	22	55843	4615	0.72393535845912992954	1	1	787.0262469987210352	0	82	NaN	1	1	0	1	2	0
6	1	8	23	30326	4306	0.72398165345657616854	0	1	978.68279400063329376	0	NaN	NaN	0	1	1	0	1	0
6	1	8	24	55029	5523	0.72402794263325631618	0	1	920.3196019989263732	0	NaN	NaN	0	1	1	0	1	0
6	1	8	25	45992	7974	0.72407424042467027903	1	1	806.72195700026350096	0	205	NaN	1	1	0	1	2	0
6	1	8	26	37717	1196	0.72412053414154797792	0	1	674.84088399942265823	0	NaN	NaN	0	1	1	0	1	0
6	1	8	27	17098	9718	0.72416682937182486057	1	1	744.13374399955500849	0	317	NaN	1	1	0	1	2	0
6	1	8	28	20907	9244	0.72421312145888805389	0	1	902.06336200208170339	0	NaN	NaN	0	1	1	0	1	0
6	1	8	29	21764	2604	0.72425941529218107462	0	0	622.59792400072910823	0	NaN	NaN	0	0	0	1	2	0
6	1	8	30	12897	4793	0.72430571052245795727	0	1	1642.7952559970435686	0	NaN	NaN	0	1	1	0	1	0
6	1	8	31	71754	988	0.72439829865470528603	0	1	1470.9465480009384919	0	NaN	NaN	0	1	1	0	1	0
6	1	8	32	52370	5894	0.72444458899553865194	0	1	703.32643399888183922	0	NaN	NaN	0	1	1	0	1	0
6	1	8	33	27741	1732	0.72449088562279939651	0	1	845.86854299777769484	0	NaN	NaN	0	1	1	0	1	0
6	1	8	34	7999	6066	0.72453717817552387714	0	1	770.30451400059973821	0	NaN	NaN	0	1	1	0	1	0
6	1	8	35	58451	7020	0.72458347538486123085	0	1	716.77962000103434548	0	NaN	NaN	0	1	1	0	1	0
6	1	8	36	40092	9798	0.72462977305985987186	0	1	854.98090799956116825	0	NaN	NaN	0	1	1	0	1	0
6	1	8	37	36213	1771	0.72467605862766504288	0	1	771.48470600150176324	0	NaN	NaN	0	1	1	0	1	0
6	1	8	38	50940	5382	0.7247223580488935113	0	1	618.98039700099616311	0	NaN	NaN	0	1	1	0	1	0
6	1	8	39	35586	8917	0.72476864256896078587	0	1	773.50217100320151076	0	NaN	NaN	0	1	1	0	1	0
6	1	8	40	37467	6311	0.7248149472288787365	1	1	729.15670700240298174	0	122	NaN	1	1	0	1	2	0
6	1	8	41	52032	5514	0.72486122965347021818	0	1	829.79557299768202938	0	NaN	NaN	0	1	1	0	1	0
6	1	8	42	19410	3924	0.72495382174383848906	0	1	758.76192500072647817	0	NaN	NaN	0	1	1	0	1	0
6	1	8	43	21764	2604	0.72500011406373232603	1	1	929.71331800072221085	0	13	NaN	1	1	0	1	2	0
6	1	8	44	1476	1192	0.72504640754777938128	1	1	856.86670799987041391	0	38	NaN	1	1	0	1	2	0
6	1	8	45	66928	2755	0.72509270987939089537	0	1	1048.4374120023858268	0	NaN	NaN	0	1	1	0	1	0
6	1	8	46	68602	9761	0.72513899370096623898	0	1	969.21573500003432855	0	NaN	NaN	0	1	1	0	1	0
6	1	8	47	6532	1968	0.72518519673030823469	0	0	882.05942100103129633	0	NaN	NaN	0	0	0	1	2	0
6	1	8	48	33956	7559	0.72523149405606091022	1	1	921.43708200092078187	0	268	NaN	1	1	0	1	2	0
6	1	8	49	48968	1551	0.72527777741197496653	0	1	772.47274299952550791	0	NaN	NaN	0	1	1	0	1	0
6	1	8	50	71351	6666	0.72532408568076789379	1	0	908.31869500107131898	0	336	NaN	1	0	1	0	1	0
6	1	8	51	40822	8170	0.72537037311121821404	1	1	866.33164899831172079	0	63	NaN	1	1	0	1	2	0
6	1	8	52	7183	3756	0.72541666985489428043	1	1	1431.0963530006119981	1	32	252	1	1	1	1	2	0
6	1	8	53	47224	2262	0.72546295681968331337	0	1	758.91072299782535993	0	NaN	NaN	0	1	1	0	1	0
6	1	8	54	13985	4784	0.72550925856921821833	1	1	881.9044459996803198	0	95	NaN	1	1	0	1	2	0
6	1	8	55	59968	5714	0.72560183925088495016	1	1	1002.4442239991913084	0	198	NaN	1	1	0	1	2	0
6	1	8	56	66496	1108	0.72564814018551260233	1	1	718.02972500154282898	0	279	389	1	1	0	1	2	0
6	1	8	57	37557	1224	0.72569443297106772661	0	1	721.30601699973340146	0	NaN	NaN	0	1	1	0	1	0
6	1	8	58	66873	9934	0.72574072692077606916	0	1	834.2149119998794049	0	NaN	NaN	0	1	1	0	1	0
6	1	8	59	12326	1317	0.72578702401369810104	0	1	802.72231399794691242	0	NaN	NaN	0	1	1	0	1	0
6	1	8	60	58145	805	0.72583331714849919081	0	1	554.30459399940446019	0	NaN	NaN	0	1	1	0	1	0
6	1	8	61	14422	5274	0.72587961005046963692	0	1	892.01079200211097486	0	NaN	NaN	0	1	1	0	1	0
6	1	8	62	4350	5350	0.72592590074054896832	0	1	706.08880600047996268	0	NaN	NaN	0	1	1	0	1	0
6	1	9	1	47224	2262	0.72834782034624367952	1	1	1742.2518099992885254	1	9	NaN	1	1	1	1	2	0
6	1	9	2	60264	6246	0.728394115692935884	1	0	1215.5164309988322202	0	149	NaN	1	0	1	0	1	0
6	1	9	3	3684	9272	0.72844040580093860626	1	1	788.38701099812169559	0	92	203	1	1	0	1	2	0
6	1	9	4	34492	4741	0.72848669765517115593	1	1	1288.0968800018308684	0	242	NaN	1	1	0	1	2	0
6	1	9	5	11943	145	0.72853299090638756752	0	1	704.49936300065019168	0	NaN	NaN	0	1	1	0	1	0
6	1	9	6	69062	6367	0.72857928636949509382	0	1	765.23476100192056037	0	NaN	NaN	0	1	1	0	1	0
6	1	9	7	19224	3548	0.72862558730412274599	1	1	685.7892930020170752	0	194	298	1	1	0	1	2	0
6	1	9	8	11892	2752	0.72867187834344804287	0	1	984.97345999930985272	0	NaN	NaN	0	1	2	0	1	0
6	1	9	9	19182	230	0.72871816146653145552	1	1	842.13288399769226089	0	74	NaN	1	1	0	1	2	0
6	1	9	10	54754	9922	0.72876447089947760105	0	1	750.71183799809659831	0	NaN	NaN	0	1	2	0	1	0
6	1	9	11	44675	5889	0.72881075914483517408	0	1	881.67147400235990062	0	NaN	NaN	0	1	1	0	1	0
6	1	9	12	68232	2377	0.72885705425869673491	0	1	829.52211700103362091	0	NaN	NaN	0	1	1	0	1	0
6	1	9	13	19300	1492	0.72890324308536946774	1	0	711.13413300190586597	0	209	NaN	1	0	1	0	1	0
6	1	9	14	17127	3194	0.72899583727121353149	1	1	686.86673999764025211	0	160	319	1	1	0	1	2	0
6	1	9	15	1334	1899	0.7290421271463856101	0	1	1021.5232709997508209	0	NaN	NaN	0	1	1	0	1	0
6	1	9	16	15046	9049	0.72908842621836811304	0	1	763.44459100073436275	0	NaN	NaN	0	1	1	0	1	0
6	1	9	17	8064	5081	0.72913471981883049011	1	1	715.2769970016379375	0	256	NaN	1	1	0	1	2	0
6	1	9	18	18869	8174	0.72918100643437355757	1	1	741.20920600034878589	0	141	180	1	1	0	1	2	0
6	1	9	19	64965	1624	0.72922729887068271637	0	0	856.08162399876164272	0	NaN	NaN	0	0	0	1	2	0
6	1	9	20	38818	511	0.72927366499789059162	0	0	786.30616400187136605	0	NaN	NaN	0	0	0	1	2	0
6	1	9	21	8831	4420	0.72931989200878888369	0	1	754.73862299986649305	0	NaN	NaN	0	1	1	0	1	0
6	1	9	22	56770	5745	0.72936619084794074297	0	1	924.12814499766682275	0	NaN	NaN	0	1	1	0	1	0
6	1	9	23	70150	3492	0.72941248153802007437	0	1	959.51502500247443095	0	NaN	NaN	0	1	1	0	1	0
6	1	9	24	66490	919	0.72945877164602279663	0	1	702.45190300192916766	0	NaN	NaN	0	1	1	0	1	0
6	1	9	25	72538	5733	0.72955136653035879135	0	1	774.48400299908826128	0	NaN	NaN	0	1	1	0	1	0
6	1	9	26	55828	8542	0.72959765407722443342	0	1	832.90663699881406501	0	NaN	NaN	0	1	1	0	1	0
6	1	9	27	40003	2220	0.72964395582675933838	0	1	732.55647199766826816	0	NaN	NaN	0	1	1	0	1	0
6	1	9	28	71233	984	0.72969024151097983122	0	1	1311.8951649994414765	0	NaN	NaN	0	1	1	0	1	0
6	1	9	29	13449	7057	0.72973654395900666714	0	1	663.33646500061149709	0	NaN	NaN	0	1	1	0	1	0
6	1	9	30	7175	5896	0.7297828310402110219	0	1	1128.3825609971245285	0	NaN	NaN	0	1	1	0	1	0
6	1	9	31	35982	7390	0.72982912918087095022	0	1	712.73392699731630273	0	NaN	NaN	0	1	1	0	1	0
6	1	9	32	43910	5139	0.72987542662303894758	0	1	892.7235240007576067	0	NaN	NaN	0	1	1	0	1	0
6	1	9	33	9014	2320	0.72992172092199325562	0	1	782.50788399964221753	0	NaN	NaN	0	1	1	0	1	0
6	1	9	34	50493	6169	0.72996801265981048346	0	1	718.77682700142031536	0	NaN	NaN	0	1	1	0	1	0
6	1	9	35	20971	4523	0.73001430847216397524	1	0	784.2491320006956812	0	522	NaN	1	0	2	0	1	0
6	1	9	36	61586	7240	0.73010688892100006342	0	1	1003.4246289978909772	0	NaN	NaN	0	1	1	0	1	0
6	1	9	37	38122	6069	0.73015319160185754299	0	1	692.67438599854358472	0	NaN	NaN	0	1	1	0	1	0
6	1	9	38	34938	6817	0.73019939160440117121	0	1	864.61995799982105382	0	NaN	NaN	0	1	1	0	1	0
6	1	9	39	9014	2320	0.73024567600805312395	1	1	788.69068600033642724	0	5	NaN	1	1	0	1	2	0
6	1	9	40	39770	3951	0.730291979038156569	1	1	1090.641730999777792	0	291	NaN	1	1	0	1	2	0
6	1	9	41	69194	7568	0.73033826716709882021	0	1	703.22128699990571477	0	NaN	NaN	0	1	1	0	1	0
6	1	9	42	46955	7447	0.73038461024407297373	0	1	682.41417600074782968	0	NaN	NaN	0	1	1	0	1	0
6	1	9	43	22064	6540	0.73043085273820906878	0	1	609.59145000015269034	0	NaN	NaN	0	1	1	0	1	0
6	1	9	44	63181	2255	0.730477155651897192	0	1	925.52173699732520618	0	NaN	NaN	0	1	1	0	1	0
6	1	9	45	604	9088	0.73056974355131387711	0	1	792.73253499923157506	0	NaN	NaN	0	1	1	0	1	0
6	1	9	46	41786	9124	0.73061603656969964504	0	1	777.10498399756033905	0	NaN	NaN	0	1	1	0	1	0
6	1	9	47	71490	3293	0.73066232271958142519	1	1	808.16628899992792867	0	158	187	1	1	0	1	2	0
6	1	9	48	5560	2821	0.73070862481836229563	0	1	743.10260100173763931	0	NaN	NaN	0	1	1	0	1	0
6	1	9	49	60292	4095	0.73075491876807063818	0	1	964.15867299947421998	0	NaN	NaN	0	1	1	0	1	0
6	1	9	50	59903	4751	0.73080121062230318785	1	1	989.59115500110783614	0	328	NaN	1	1	0	1	2	0
6	1	9	51	66928	2755	0.73084750655107200146	1	1	809.65087500226218253	0	67	NaN	1	1	0	1	2	0
6	1	9	52	49901	7655	0.73089379677549004555	0	1	640.00271199984126724	0	NaN	NaN	0	1	1	0	1	0
6	1	9	53	65631	3807	0.73094009619671851397	0	1	563.29838400051812641	0	NaN	NaN	0	1	1	0	1	0
6	1	9	54	65294	3457	0.7309863892151042819	1	1	754.90491699747508392	0	267	353	1	1	0	1	2	0
6	1	9	55	42770	8109	0.73107898002490401268	1	1	1169.5666339983290527	0	115	NaN	1	1	0	1	2	0
6	1	9	56	398	6054	0.73112526827026158571	0	1	902.7007579970813822	0	NaN	NaN	0	1	1	0	1	0
6	1	9	57	35856	9508	0.73117156384978443384	0	1	772.08152399907703511	0	NaN	NaN	0	1	1	0	1	0
6	1	9	58	11193	3768	0.73121786164119839668	0	1	910.29806100050336681	0	NaN	NaN	0	1	1	0	1	0
6	1	9	59	6132	6410	0.73126415035221725702	0	1	670.57391900016227737	0	NaN	NaN	0	1	2	0	1	0
6	1	9	60	43784	2328	0.73131035419646650553	0	1	902.79644700058270246	0	NaN	NaN	0	1	1	0	1	0
6	1	9	61	65631	3807	0.73135663894936442375	1	1	768.69766299932962283	0	7	NaN	1	1	0	1	2	0
6	1	9	62	68	7697	0.73140293220058083534	0	1	685.86572500134934671	0	NaN	NaN	0	1	1	0	1	0
6	1	9	63	15770	8816	0.7314492322038859129	0	1	677.68177900143200532	0	NaN	NaN	0	1	1	0	1	0
6	1	10	1	66416	3444	0.73378010827582329512	1	1	1186.6482990008080378	0	314	482	1	1	0	1	2	0
6	1	10	2	36031	7744	0.73382641503121703863	0	1	641.14648000031593256	0	NaN	NaN	0	1	1	0	1	0
6	1	10	3	49940	6106	0.73387268884107470512	1	1	679.75642900273669511	0	107	295	1	1	0	1	2	0
6	1	10	4	43442	1126	0.73391900397837162018	0	1	990.44199299896718003	0	NaN	NaN	0	1	1	0	1	0
6	1	10	5	8692	7339	0.73396527650766074657	0	1	853.93462499996530823	0	NaN	NaN	0	1	1	0	1	0
6	1	10	6	47024	2913	0.73401158233173191547	0	1	647.95738600150798447	0	NaN	NaN	0	1	1	0	1	0
6	1	10	7	19738	7572	0.73405787115916609764	0	1	802.86526000054436736	0	NaN	NaN	0	1	1	0	1	0
6	1	10	8	39329	8516	0.73410417838022112846	1	0	648.40871600245009176	0	202	NaN	1	0	1	0	1	0
6	1	10	9	20193	6139	0.734150457545183599	0	1	580.38817100168671459	0	NaN	NaN	0	1	1	0	1	0
6	1	10	10	2831	9261	0.73424304090440273285	0	1	669.37122699891915545	0	NaN	NaN	0	1	1	0	1	0
6	1	10	11	67784	8315	0.73428935150150209665	1	1	676.16824899960192852	0	167	175	1	1	0	1	2	0
6	1	10	12	3627	14	0.73433563997969031334	0	1	588.52211600242299028	0	NaN	NaN	0	1	1	0	1	0
6	1	10	13	21080	5660	0.73438193416222929955	1	1	762.97657199756940827	0	178	NaN	1	1	0	1	2	0
6	1	10	14	835	6692	0.73442822543438524008	1	1	761.27711099979933351	0	143	398	1	1	0	1	2	0
6	1	10	15	22172	4211	0.73447452019900083542	0	1	947.9702739990898408	0	NaN	NaN	0	1	1	0	1	0
6	1	10	16	68997	9571	0.7345208099577575922	0	1	667.50700700140441768	0	NaN	NaN	0	1	1	0	1	0
6	1	10	17	43666	9570	0.73456711636390537024	0	1	849.30683399943518452	0	NaN	NaN	0	1	1	0	1	0
6	1	10	18	67516	4400	0.73461339739151299	0	1	870.83330600216868334	0	NaN	NaN	0	1	1	0	1	0
6	1	10	19	60641	8200	0.73465970612596720457	0	1	754.11574099780409597	0	NaN	NaN	0	1	1	0	1	0
6	1	10	20	54064	5345	0.73470598552376031876	0	1	622.96838399925036356	0	NaN	NaN	0	1	1	0	1	0
6	1	10	21	11915	4585	0.73479857970960438251	0	1	851.98322799988090992	0	NaN	NaN	0	1	1	0	1	0
6	1	10	22	8064	5081	0.73484486760571599007	1	1	790.94443400026648305	0	67	324	1	1	0	1	2	0
6	1	10	23	23232	7247	0.73489115817937999964	0	1	887.66348199715139344	0	NaN	NaN	0	1	1	0	1	0
6	1	10	24	16891	5960	0.73493746423628181219	0	1	732.8447969994158484	0	NaN	NaN	0	1	1	0	1	0
6	1	10	25	70767	6843	0.73498375527560710907	1	1	1271.6428810017532669	0	244	485	1	1	0	1	2	0
6	1	10	26	45912	2726	0.73503004771191626787	0	1	761.80762899821274914	0	NaN	NaN	0	1	1	0	1	0
6	1	10	27	66140	4285	0.73507634212728589773	1	1	868.03868900096858852	0	141	403	1	1	0	1	2	0
6	1	10	28	38067	7449	0.73512263607699424028	0	1	516.87813500029733405	0	NaN	NaN	0	1	1	0	1	0
6	1	10	29	41095	3909	0.73516883968841284513	0	1	701.71551399835152552	0	NaN	NaN	0	1	1	0	1	0
6	1	10	30	62074	6194	0.73526142281480133533	0	1	602.14200000336859375	0	NaN	NaN	0	1	1	0	1	0
6	1	10	31	51023	3376	0.73530771513469517231	1	1	792.94841700175311416	0	484	NaN	1	1	0	1	2	0
6	1	10	32	52482	3500	0.73535401176195591688	0	1	681.60188499678042717	0	NaN	NaN	0	1	1	0	1	0
6	1	10	33	71360	6752	0.73540030454751104116	0	1	732.39965799803030677	0	NaN	NaN	0	1	1	0	1	0
6	1	10	34	69092	4739	0.73544659710023552179	0	1	738.41881699991063215	0	NaN	NaN	0	1	1	0	1	0
6	1	10	35	53136	3456	0.73549288883805274963	0	1	750.29694300246774219	0	NaN	NaN	0	1	1	0	1	0
6	1	10	36	19182	230	0.73553918581455945969	1	1	651.47048799917683937	0	89	164	1	1	0	1	2	0
6	1	10	37	45596	616	0.73558548116125166416	1	1	943.80161700246389955	0	253	NaN	1	1	0	1	2	0
6	1	10	38	14529	173	0.73563177627511322498	0	1	641.13637099944753572	0	NaN	NaN	0	1	1	0	1	0
6	1	10	39	17619	2163	0.73567807045765221119	0	1	675.28599300203495659	0	NaN	NaN	0	1	1	0	1	0
6	1	10	40	40137	9008	0.73577065789140760899	0	1	743.23420000291662291	0	NaN	NaN	0	1	1	0	1	0
6	1	10	41	31272	4465	0.73581695288885384798	0	1	871.50455500159296207	0	NaN	NaN	0	1	1	0	1	0
6	1	10	42	62541	7198	0.73586324299685657024	0	1	1031.1311069999646861	0	NaN	NaN	0	1	1	0	1	0
6	1	10	43	26672	5817	0.73590953950770199299	0	1	1002.310283001861535	0	NaN	NaN	0	1	1	0	1	0
6	1	10	44	12295	6148	0.73595583532005548477	0	1	942.82520799970370717	0	NaN	NaN	0	1	1	0	1	0
6	1	10	45	7263	4356	0.73600212892051786184	0	1	838.20103200196172111	0	NaN	NaN	0	1	1	0	1	0
6	1	10	46	47216	4186	0.7360484155360609293	1	0	1189.6518879984796513	0	494	NaN	1	0	1	0	1	0
6	1	10	47	25508	1703	0.73609471693634986877	1	1	845.41430399985983968	0	570	NaN	1	1	0	1	2	0
6	1	10	48	57978	9294	0.73614100588019937277	0	1	1139.7820460006187204	0	NaN	NaN	0	1	1	0	1	0
6	1	10	49	37467	6311	0.73618730599991977215	1	1	642.59337999828858301	0	133	256	1	1	0	1	2	0
6	1	10	50	59406	9492	0.73623360379133373499	0	1	832.20468899889965542	0	NaN	NaN	0	1	1	0	1	0
6	1	10	51	41606	8688	0.7362798936665058136	0	1	703.69716999994125217	0	NaN	NaN	0	1	1	0	1	0
6	1	10	52	24236	3319	0.73637247423175722361	0	1	703.26126299914903939	0	NaN	NaN	0	1	1	0	1	0
6	1	10	53	68645	1769	0.73641877144109457731	0	1	655.51972899993415922	0	NaN	NaN	0	1	1	0	1	0
6	1	10	54	51104	8140	0.73646496783476322889	0	1	958.40952700018533505	0	NaN	NaN	0	1	1	0	1	0
6	1	10	55	31062	7561	0.73651126690674573183	0	1	604.3382210009440314	0	NaN	NaN	0	1	1	0	1	0
6	1	10	56	66034	2304	0.73655755852814763784	0	1	690.92750299751060084	0	NaN	NaN	0	1	1	0	1	0
6	1	10	57	64592	2481	0.73660385492257773876	0	1	760.30997500129160471	0	NaN	NaN	0	1	1	0	1	0
6	1	10	58	18384	2880	0.73665014118887484074	1	1	691.51738499931525439	0	402	NaN	1	1	0	1	2	0
6	1	10	59	39525	2186	0.7366964446846395731	1	1	947.90783300049952231	0	162	NaN	1	1	0	1	2	0
6	1	10	60	12637	2935	0.73674273851793259382	0	1	802.34489800204755738	0	NaN	NaN	0	1	1	0	1	0
6	1	10	61	46887	5193	0.73678902722895145416	0	1	709.20744400063995272	0	NaN	NaN	0	1	1	0	1	0
6	1	10	62	9918	116	0.73683532280847430229	1	1	1016.51918799689156	0	267	NaN	1	1	0	1	2	0
6	1	11	1	11378	9647	0.73840042483061552048	0	1	849.05757399974390864	0	NaN	NaN	0	1	1	0	1	0
6	1	11	2	53720	1791	0.7384467272786423564	0	1	761.19706700046663173	0	NaN	NaN	0	1	1	0	1	0
6	1	11	3	15324	1407	0.7384930287953466177	0	1	642.90496700050425716	0	NaN	NaN	0	1	1	0	1	0
6	1	11	4	56043	770	0.73853932879865169525	0	1	1003.0481559988402296	0	NaN	NaN	0	1	1	0	1	0
6	1	11	5	56848	2830	0.73858562065288424492	0	1	833.99681000082637183	0	NaN	NaN	0	1	1	0	1	0
6	1	11	6	6315	2129	0.73863192065618932247	0	1	740.2604269991570618	0	NaN	NaN	0	1	1	0	1	0
6	1	11	7	29327	2579	0.73867820145096629858	0	1	662.26335399915114976	0	NaN	NaN	0	1	1	0	1	0
6	1	11	8	37993	3014	0.73872451868373900652	1	1	836.80415699927834794	0	444	540	1	1	0	1	2	0
6	1	11	9	34239	459	0.73877079109661281109	0	1	1022.637275997112738	0	NaN	NaN	0	1	1	0	1	0
6	1	11	10	16202	2642	0.73881710425484925508	0	1	1379.2286470015824307	0	NaN	NaN	0	1	1	0	1	0
6	1	11	11	23111	8996	0.73886338644661009312	0	1	768.60808399942470714	0	NaN	NaN	0	1	1	0	1	0
6	1	11	12	56770	5745	0.73890967038460075855	1	1	803.3004469980369322	0	114	NaN	1	1	0	1	2	0
6	1	11	13	31954	3410	0.73900229716673493385	0	1	719.60155700071481988	0	NaN	NaN	0	1	1	0	1	0
6	1	11	14	916	8116	0.73904855933506041765	0	0	1774.6689870000409428	0	NaN	NaN	0	0	0	1	2	0
6	1	11	15	72538	5733	0.73909489251673221588	1	0	748.33947600200190209	0	114	NaN	1	0	1	0	1	0
6	1	11	16	39770	3951	0.73914114548824727535	1	1	857.41368599701672792	0	100	392	1	1	0	1	2	0
6	1	11	17	3922	1482	0.73918748775031417608	0	1	833.06205899862106889	0	NaN	NaN	0	1	1	0	1	0
6	1	11	18	1708	4599	0.73923373071011155844	0	1	1104.0445649996399879	0	NaN	NaN	0	1	1	0	1	0
6	1	11	19	14610	4040	0.73928008764050900936	0	1	609.3235869993804954	0	NaN	NaN	0	1	1	0	1	0
6	1	11	20	1662	4982	0.73932632547803223133	0	1	622.36435800150502473	0	NaN	NaN	0	1	1	0	1	0
6	1	11	21	10694	8474	0.73937268147710710764	0	1	783.22281399960047565	0	NaN	NaN	0	1	1	0	1	0
6	1	11	22	38468	9657	0.73941891535650938749	1	1	860.83621500074514188	0	321	NaN	1	1	0	1	2	0
6	1	11	23	42859	6168	0.73951149568893015385	0	1	937.11853100103326142	0	NaN	NaN	0	1	1	0	1	0
6	1	11	24	53439	6537	0.73955787240993231535	0	1	797.87393299920950085	0	NaN	NaN	0	1	1	0	1	0
6	1	11	25	37614	4759	0.73960408929269760847	0	1	840.89995999966049567	0	NaN	NaN	0	1	1	0	1	0
6	1	11	26	52032	5514	0.73965047241654247046	1	1	1145.5203040022752248	0	171	NaN	1	1	0	1	2	0
6	1	11	27	9357	4620	0.73969667812343686819	0	1	1109.1225330019369721	0	NaN	NaN	0	1	1	0	1	0
6	1	11	28	15200	7333	0.73974305519368499517	0	1	622.4670720002905	0	NaN	NaN	0	1	1	0	1	0
6	1	11	29	25725	1069	0.73978926846757531166	0	1	639.23042500027804635	0	NaN	NaN	0	1	1	0	1	0
6	1	11	30	36398	1218	0.73983565170783549547	0	1	993.80537300021387637	0	NaN	NaN	0	1	1	0	1	0
6	1	11	31	55671	1512	0.73988185427151620388	0	1	926.04423800003132783	0	NaN	NaN	0	1	1	0	1	0
6	1	11	32	1708	4599	0.73992825427558273077	1	1	760.94800599821610376	0	13	NaN	1	1	0	1	2	0
6	1	11	33	69848	1040	0.73997443902771919966	0	1	681.12397200093255378	0	NaN	NaN	0	1	1	0	1	0
6	1	11	34	64965	1624	0.7400208513718098402	1	1	831.96576999762328342	0	139	NaN	1	1	0	1	2	0
6	1	11	35	53013	1808	0.74011344811879098415	1	0	691.01571500141290016	0	333	NaN	1	0	1	0	1	0
6	1	11	36	58604	4690	0.74015952541958540678	0	1	663.49235999950906262	0	NaN	NaN	0	1	1	0	1	0
6	1	11	37	71117	5019	0.74020582681987434626	0	1	901.60231499976362102	0	NaN	NaN	0	1	1	0	1	0
6	1	11	38	55576	5219	0.74025210400577634573	0	1	626.7657870012044441	0	NaN	NaN	0	1	1	0	1	0
6	1	11	39	31384	9102	0.74029840400908142328	0	1	583.58593999946606345	0	NaN	NaN	0	1	1	0	1	0
6	1	11	40	40923	9621	0.74034469423349946737	1	1	738.17215099916211329	0	547	NaN	1	1	0	1	2	0
6	1	11	41	21513	5874	0.74039098620414733887	0	1	1080.962167998222867	0	NaN	NaN	0	1	1	0	1	0
6	1	11	42	14122	169	0.74043728248216211796	0	1	1462.7300169995578472	0	NaN	NaN	0	1	1	0	1	0
6	1	11	43	604	9088	0.74048358062282204628	1	1	1024.6226849994855002	1	122	NaN	1	1	1	1	2	0
6	1	11	44	46204	4637	0.74057616933714598417	0	1	691.03880200054845773	0	NaN	NaN	0	1	1	0	1	0
6	1	11	45	62916	4522	0.74062246910762041807	0	1	667.36481599946273491	0	NaN	NaN	0	1	1	0	1	0
6	1	11	46	60912	7224	0.74066875327844172716	0	1	621.6605269983119797	0	NaN	NaN	0	1	1	0	1	0
6	1	11	47	10448	3822	0.74071504536550492048	0	1	609.94972299886285327	0	NaN	NaN	0	1	1	0	1	0
6	1	11	48	47523	6407	0.74076134292408823967	0	1	702.86826800293056294	0	NaN	NaN	0	1	1	0	1	0
6	1	11	49	26277	8393	0.74080763466190546751	0	1	714.57308599929092452	0	NaN	NaN	0	1	1	0	1	0
6	1	11	50	916	8116	0.74085393140558153391	1	1	650.46045000053709373	0	35	NaN	1	1	0	1	2	0
6	1	11	51	64301	2044	0.74090023210737854242	0	0	970.37823799837497063	0	NaN	NaN	0	0	0	1	2	0
6	1	11	52	42445	3862	0.74094652023632079363	1	1	964.08291300031123683	0	247	NaN	1	1	0	1	2	0
6	1	11	53	43022	8019	0.74099281674716621637	0	1	702.33398699929239228	0	NaN	NaN	0	1	1	0	1	0
6	1	11	54	15324	1407	0.74108540639281272888	1	1	980.63435299991397187	0	50	NaN	1	1	0	1	2	0
6	1	11	55	71986	7367	0.74113169999327510595	1	1	802.54155399961746298	0	589	NaN	1	1	0	1	2	0
6	1	11	56	40034	8706	0.74117799021769315004	0	1	742.95804799839970656	0	NaN	NaN	0	1	1	0	1	0
6	1	11	57	20595	2753	0.74122428998816758394	0	1	738.03754199980176054	0	NaN	NaN	0	1	1	0	1	0
6	1	11	58	27102	3802	0.74127058358862996101	0	1	815.5558190010196995	0	NaN	NaN	0	1	1	0	1	0
6	1	11	59	38468	9657	0.74131687928456813097	1	1	656.05818300173268653	0	36	358	1	1	0	1	2	0
6	1	11	60	59968	5714	0.7413631778908893466	1	1	810.62160600049537607	0	191	390	1	1	0	1	2	0
6	1	11	61	26352	347	0.74140946392435580492	0	1	870.17381699843099341	0	NaN	NaN	0	1	1	0	1	0
6	1	11	62	62916	4522	0.74145576159935444593	1	1	694.9808370009122882	0	16	NaN	1	1	0	1	2	0
6	1	11	63	608	5102	0.74150195822585374117	0	1	802.17916899709962308	0	NaN	NaN	0	1	1	0	1	0
6	1	12	1	11204	1122	0.74321704520843923092	0	1	851.54231499836896546	0	NaN	NaN	0	1	1	0	1	0
6	1	12	2	4787	36	0.74326334637589752674	1	0	870.89982299949042499	0	286	NaN	1	0	1	0	1	0
6	1	12	3	61985	5273	0.74330963450483977795	0	1	585.09503399909590371	0	NaN	NaN	0	1	1	0	1	0
6	1	12	4	32797	9335	0.74335593706928193569	1	1	1488.6226509988773614	1	269	NaN	1	1	1	1	2	0
6	1	12	5	31954	3410	0.74340222007595002651	1	1	729.6250580002379138	0	54	NaN	1	1	0	1	2	0
6	1	12	6	67538	5670	0.74344852427020668983	0	1	625.31903299895930104	0	NaN	NaN	0	1	1	0	1	0
6	1	12	7	5023	5449	0.74349480995442718267	0	1	727.89076100161764771	0	NaN	NaN	0	1	1	0	1	0
6	1	12	8	10349	4580	0.74354110925924032927	0	1	649.49202500065439381	0	NaN	NaN	0	1	1	0	1	0
6	1	12	9	5799	1994	0.74358740169554948807	0	1	720.63597100350307301	0	NaN	NaN	0	1	1	0	1	0
6	1	12	10	40758	1386	0.74363370577339082956	0	1	646.07525699830148369	0	NaN	NaN	0	1	1	0	1	0
6	1	12	11	48780	9828	0.74367998633533716202	0	1	631.31119699755799957	0	NaN	NaN	0	1	1	0	1	0
6	1	12	12	41444	9484	0.74372629204299300909	1	0	611.61702299796161242	0	371	NaN	1	0	1	0	1	0
6	1	12	13	53683	1490	0.74377257225569337606	0	1	943.06189399867434986	0	NaN	NaN	0	1	1	0	1	0
6	1	12	14	11160	131	0.74386515619698911905	0	1	731.945439001719933	0	NaN	NaN	0	1	1	0	1	0
6	1	12	15	10654	5518	0.74391145410481840372	0	1	633.47120999969774857	0	NaN	NaN	0	1	1	0	1	0
6	1	12	16	18323	1103	0.74395765864755958319	0	1	682.92242000097758137	0	NaN	NaN	0	1	1	0	1	0
6	1	12	17	43192	5354	0.74400395236443728209	0	1	663.52237899991450831	0	NaN	NaN	0	1	1	0	1	0
6	1	12	18	67686	8405	0.74405024305451661348	0	1	685.94195100013166666	0	NaN	NaN	0	1	1	0	1	0
6	1	12	19	2609	4272	0.74409653746988624334	0	1	807.05481699988013133	0	NaN	NaN	0	1	1	0	1	0
6	1	12	20	71136	9513	0.74414283328223973513	0	1	735.81837099845870398	0	NaN	NaN	0	1	1	0	1	0
6	1	12	21	13879	7408	0.74418911873362958431	0	1	788.76460500032408163	0	NaN	NaN	0	1	1	0	1	0
6	1	12	22	47024	2913	0.74423541990108788013	1	0	1078.2504999988304917	0	140	NaN	1	0	1	0	1	0
6	1	12	23	70817	1834	0.74428171396721154451	0	1	587.01081699837232009	0	NaN	NaN	0	1	1	0	1	0
6	1	12	24	64488	7141	0.74437429977115243673	0	1	701.81732299897703342	0	NaN	NaN	0	1	1	0	1	0
6	1	12	25	57224	1784	0.74442059546709060669	0	1	589.07109999927342869	0	NaN	NaN	0	1	1	0	1	0
6	1	12	26	14920	3880	0.74446688254829496145	0	1	685.67221899866126478	0	NaN	NaN	0	1	1	0	1	0
6	1	12	27	15324	1407	0.74451317987404763699	1	1	728.86538300008396618	0	35	86	1	1	0	1	2	0
6	1	12	28	12324	5778	0.74455947917886078358	0	1	637.50797800094005652	0	NaN	NaN	0	1	1	0	1	0
6	1	12	29	32246	5306	0.74460577312856912613	0	1	653.38764599800924771	0	NaN	NaN	0	1	1	0	1	0
6	1	12	30	20954	6677	0.74465206416789442301	0	1	701.92224600032204762	0	NaN	NaN	0	1	1	0	1	0
6	1	12	31	47884	6378	0.74469835730269551277	0	1	606.1081210027623456	0	NaN	NaN	0	1	1	0	1	0
6	1	12	32	29914	2451	0.74474465544335544109	1	1	1089.549389998865081	1	305	NaN	1	1	1	1	2	0
6	1	12	33	10448	3822	0.7447909496258944273	1	1	775.50374000202282332	0	48	NaN	1	1	0	1	2	0
6	1	12	34	69069	5870	0.74488352972548455	0	1	757.59825800196267664	0	NaN	NaN	0	1	1	0	1	0
6	1	12	35	52892	2567	0.74492983322124928236	0	1	745.84640700049931183	0	NaN	NaN	0	1	1	0	1	0
6	1	12	36	40992	1446	0.7449761249590665102	0	1	621.23080799938179553	0	NaN	NaN	0	1	1	0	1	0
6	1	12	37	14529	173	0.74502242018934339285	1	1	759.80829900072421879	0	123	NaN	1	1	0	1	2	0
6	1	12	38	14701	5360	0.74506871576886624098	0	1	731.57840600106283091	0	NaN	NaN	0	1	1	0	1	0
6	1	12	39	42859	6168	0.74511500867083668709	1	1	846.01212400229997002	0	78	NaN	1	1	0	1	2	0
6	1	12	40	1708	4599	0.74516130355186760426	1	1	665.0501180010905955	0	70	84	1	1	0	1	2	0
6	1	12	41	18089	4614	0.74520759237930178642	0	1	710.5590719984320458	0	NaN	NaN	0	1	1	0	1	0
6	1	12	42	54974	8417	0.74525379529222846031	0	1	750.19560900182113983	0	NaN	NaN	0	1	1	0	1	0
6	1	12	43	51229	2034	0.74534637934993952513	0	1	702.54953400217345916	0	NaN	NaN	0	1	1	0	1	0
6	1	12	44	29838	398	0.74539267527870833874	0	1	556.78696500035584904	0	NaN	NaN	0	1	1	0	1	0
6	1	12	45	67769	8629	0.74543897167313843966	0	1	572.36516800185199827	0	NaN	NaN	0	1	1	0	1	0
6	1	12	46	65595	1411	0.7454852578230202198	0	1	465.03669700177852064	0	NaN	NaN	0	1	1	0	1	0
6	1	12	47	67146	2152	0.74553156376350671053	0	1	562.22975399941788055	0	NaN	NaN	0	1	1	0	1	0
6	1	12	48	60510	6858	0.74557784583885222673	0	1	633.66168599895900115	0	NaN	NaN	0	1	1	0	1	0
6	1	12	49	24786	9391	0.74562414817046374083	0	1	717.17824399820528924	0	NaN	NaN	0	1	1	0	1	0
6	1	12	50	43192	5354	0.74567044537980109453	1	1	702.94994899813900702	0	32	NaN	1	1	0	1	2	0
6	1	12	51	58145	805	0.74571672931779175997	1	1	1061.2558469983923715	1	240	NaN	1	1	1	1	2	0
6	1	12	52	70354	4665	0.745809318614192307	0	1	929.47104199993191287	0	NaN	NaN	0	1	1	0	1	0
6	1	12	53	31062	7561	0.7458556188503280282	1	1	871.16135299947927706	0	122	NaN	1	1	0	1	2	0
6	1	12	54	72861	8160	0.74590190849266946316	0	1	1021.4382789999945089	0	NaN	NaN	0	1	1	0	1	0
6	1	12	55	12605	2161	0.74594820884522050619	0	1	627.28040300135035068	0	NaN	NaN	0	1	1	0	1	0
6	1	12	56	40670	7903	0.74599449720699340105	0	1	749.91134900119504891	0	NaN	NaN	0	1	1	0	1	0
6	1	12	57	51253	7560	0.74604079616256058216	0	1	842.55748199939262122	0	NaN	NaN	0	1	1	0	1	0
6	1	12	58	54536	2370	0.7460870835930109024	0	1	655.1133440007106401	0	NaN	NaN	0	1	1	0	1	0
6	1	12	59	72518	2563	0.7461333876708522439	0	1	578.15837499947519973	0	NaN	NaN	0	1	1	0	1	0
6	1	12	60	48682	670	0.74617967847734689713	0	1	624.02448699867818505	0	NaN	NaN	0	1	1	0	1	0
6	1	12	61	51180	9409	0.7462259725434705615	0	1	541.74517899809870869	0	NaN	NaN	0	1	1	0	1	0
6	1	12	62	11883	9681	0.74627226241864264011	0	1	748.7076340003113728	0	NaN	NaN	0	1	1	0	1	0
6	2	1	1	70152	8819	7.681178163387812674	0	1	617.87561498931609094	0	NaN	NaN	0	1	1	0	1	0
6	2	1	2	71523	2972	7.681224506814032793	0	1	777.14853998622857034	0	NaN	NaN	0	1	1	0	1	0
6	2	1	3	14595	175	7.6812707519857212901	0	1	526.42782498151063919	0	NaN	NaN	0	1	1	0	1	0
6	2	1	4	50493	6169	7.6813170977402478456	1	0	641.23771700542420149	0	219	NaN	0	1	1	0	1	0
6	2	1	5	10452	1591	7.6813633320853114128	0	0	2148.2489619811531156	1	NaN	NaN	0	0	1	1	2	0
6	2	1	6	11979	4692	7.6814096972811967134	0	1	771.14048300427384675	0	NaN	NaN	0	1	1	0	1	0
6	2	1	7	60890	4152	7.6814559292979538441	0	1	712.69231199403293431	0	NaN	NaN	0	1	1	0	1	0
6	2	1	8	65558	7167	7.681502292980439961	0	1	775.30492801452055573	0	NaN	NaN	0	1	1	0	1	0
6	2	1	9	31272	4465	7.6815485161496326327	1	0	679.69075299333781004	0	154	NaN	0	1	1	0	1	0
6	2	1	10	59997	5313	7.6815948238363489509	0	1	717.93348100618459284	0	NaN	NaN	0	1	1	0	1	0
6	2	1	11	24481	305	7.6816411041654646397	0	1	1191.2394760001916438	0	NaN	NaN	0	1	1	0	1	0
6	2	1	12	50703	9575	7.6816874053329229355	1	0	987.34788299771025777	0	346	NaN	0	1	1	0	1	0
6	2	1	13	36975	487	7.6817336934618651867	0	1	710.17494099214673042	0	NaN	NaN	0	1	1	0	1	0
6	2	1	14	18206	3997	7.6817799975397065282	0	1	825.38384399958886206	0	NaN	NaN	0	1	1	0	1	0
6	2	1	15	35982	7390	7.6818725791526958346	1	0	854.96794700156897306	0	233	NaN	0	1	1	0	1	0
6	2	1	16	46419	1277	7.6819188696099445224	0	1	618.78777798847295344	0	NaN	NaN	0	1	1	0	1	0
6	2	1	17	54549	2195	7.6819651693804189563	0	1	839.36205002828501165	0	NaN	NaN	0	1	1	0	1	0
6	2	1	18	38251	5101	7.6820114535512402654	0	1	945.64350799191743135	0	NaN	NaN	0	1	1	0	1	0
6	2	1	19	10942	1826	7.6820577559992671013	0	1	863.44412100152112544	0	NaN	NaN	0	1	1	0	1	0
6	2	1	20	10452	1591	7.6821040381910279393	1	1	743.80698500317521393	0	14	NaN	1	1	0	1	2	0
6	2	1	21	55132	2080	7.6821503485552966595	0	1	1263.3621599816251546	0	NaN	NaN	0	1	1	0	1	0
6	2	1	22	42383	3804	7.6821966267889365554	0	1	695.07250597234815359	0	NaN	NaN	0	1	1	0	1	0
6	2	1	23	57327	2773	7.6822428307496011257	0	1	673.11971102026291192	0	NaN	NaN	0	1	1	0	1	0
6	2	1	24	54064	5345	7.6823354111984372139	1	0	814.8429820139426738	0	190	NaN	0	1	1	0	1	0
6	2	1	25	55433	7130	7.6823817121330648661	1	0	770.47196199418976903	0	336	497	0	1	1	0	1	0
6	2	1	26	45962	3770	7.6824279982829466462	1	0	909.2226909997407347	0	646	NaN	0	1	1	0	1	0
6	2	1	27	40758	1386	7.6824743037577718496	1	0	853.94890597672201693	0	78	NaN	0	1	1	0	1	0
6	2	1	28	66511	9317	7.6825205886270850897	0	1	720.31398100079968572	0	NaN	NaN	0	1	1	0	1	0
6	2	1	29	67631	8105	7.6825668826932087541	0	1	1108.9420949865598232	0	NaN	NaN	0	1	1	0	1	0
6	2	1	30	7153	8280	7.6826131802517920732	1	0	983.61890600062906742	0	413	NaN	0	1	1	0	1	0
6	2	1	31	36911	485	7.6826594674494117498	0	1	703.50608602166175842	0	NaN	NaN	0	1	1	0	1	0
6	2	1	32	16703	200	7.6827057629125192761	0	1	848.13113600830547512	0	NaN	NaN	0	1	1	0	1	0
6	2	1	33	43500	9130	7.6827520651277154684	0	1	1020.3379119921009988	0	NaN	NaN	0	1	1	0	1	0
6	2	1	34	28463	2587	7.6827983499970287085	0	1	844.44810301647521555	0	NaN	NaN	0	1	1	0	1	0
6	2	1	35	21817	2904	7.6828446452273055911	0	1	903.64249001140706241	0	NaN	NaN	0	1	1	0	1	0
6	2	1	36	29517	4239	7.6829372330103069544	0	1	1061.4621469867415726	0	NaN	NaN	0	1	1	0	1	0
6	2	1	37	8944	8001	7.6829835348762571812	0	1	771.32784298737533391	0	NaN	NaN	0	1	1	0	1	0
6	2	1	38	2435	3312	7.6830298234708607197	0	0	2003.480320010567084	1	NaN	NaN	0	0	1	1	2	0
6	2	1	39	45919	6903	7.683076120913028717	0	1	1254.4391870032995939	0	NaN	NaN	0	1	1	0	1	0
6	2	1	40	59997	5313	7.6831224121851846576	1	1	817.8519899956882	0	29	NaN	1	1	0	1	2	0
6	2	1	41	12221	5567	7.683168710907921195	0	1	829.85706199542619288	0	NaN	NaN	0	1	1	0	1	0
6	2	1	42	56624	9012	7.6832149990368634462	0	1	792.06833301577717066	0	NaN	NaN	0	1	1	0	1	0
6	2	1	43	49937	5208	7.6832612950820475817	0	1	627.93065400910563767	0	NaN	NaN	0	1	1	0	1	0
6	2	1	44	26600	3475	7.6833075856557115912	0	1	702.23875998635776341	0	NaN	NaN	0	1	1	0	1	0
6	2	1	45	72293	2336	7.6833538871724158525	1	0	1528.2225559931248426	0	366	433	0	1	1	0	1	0
6	2	1	46	40137	9008	7.6834464765852317214	1	0	1172.2126579843461514	0	192	NaN	0	1	1	0	1	0
6	2	1	47	45992	7974	7.683492670301347971	1	1	870.97639701096341014	0	333	539	0	0	0	1	2	0
6	2	1	48	22414	8441	7.6835389665793627501	1	0	731.12442198907956481	0	582	NaN	0	1	1	0	1	0
6	2	1	49	5603	53	7.6835852548247203231	1	0	718.46998101682402194	0	565	NaN	0	1	1	0	1	0
6	2	1	50	3627	14	7.6836315566906705499	1	0	1183.0739319848362356	0	224	NaN	0	1	1	0	1	0
6	2	1	51	63181	2255	7.6836778492433950305	1	0	682.99066697363741696	0	256	NaN	0	1	1	0	1	0
6	2	1	52	5159	4096	7.6837241468019783497	0	1	936.17965601151809096	0	NaN	NaN	0	1	1	0	1	0
6	2	1	53	61749	848	7.683770430157892406	0	1	686.03030600934289396	0	NaN	NaN	0	1	1	0	1	0
6	2	1	54	48752	4139	7.6838167326059192419	0	1	673.13823199947364628	0	NaN	NaN	0	1	1	0	1	0
6	2	1	55	41431	9969	7.6839093132875859737	0	1	804.48957200860604644	0	NaN	NaN	0	1	1	0	1	0
6	2	1	56	3445	5604	7.6839556160848587751	0	1	802.35665399231947958	0	NaN	NaN	0	1	1	0	1	0
6	2	1	57	11747	5629	7.6840019088704138994	0	1	688.10848600696772337	0	NaN	NaN	0	1	1	0	1	0
6	2	1	58	17570	5555	7.6840481980470940471	0	1	813.19079699460417032	0	NaN	NaN	0	1	1	0	1	0
6	2	1	59	8007	86	7.6840944954892620444	0	1	887.94106198474764824	0	NaN	NaN	0	1	1	0	1	0
6	2	1	60	69140	7292	7.6841407917672768235	0	1	665.38738401141017675	0	NaN	NaN	0	1	1	0	1	0
6	2	1	61	51902	2391	7.6841870881617069244	0	1	1102.0993689890019596	0	NaN	NaN	0	1	1	0	1	0
6	2	1	62	34626	1282	7.6842333752429112792	0	1	854.42294401582330465	0	NaN	NaN	0	1	1	0	1	0
6	2	1	63	67146	2152	7.6842796708224341273	1	1	1305.9433590096887201	0	77	NaN	0	0	0	1	2	0
6	2	2	1	20294	7785	7.6857991717988625169	0	1	853.16683101700618863	0	NaN	NaN	0	1	1	0	1	0
6	2	2	2	5358	4946	7.6858454749453812838	0	1	613.48661399097181857	0	NaN	NaN	0	1	1	0	1	0
6	2	2	3	8695	6483	7.685891756322234869	0	1	773.69489902048371732	0	NaN	NaN	0	1	1	0	1	0
6	2	2	4	69856	1436	7.6859380672685801983	0	1	616.43806099891662598	0	NaN	NaN	0	1	1	0	1	0
6	2	2	5	57405	6808	7.685984258190728724	0	1	601.51427300297655165	0	NaN	NaN	0	1	1	0	1	0
6	2	2	6	12863	6129	7.6860305404989048839	0	1	616.60739101353101432	0	NaN	NaN	0	1	1	0	1	0
6	2	2	7	24461	3625	7.6860768444603309035	0	0	2064.1413239936809987	1	NaN	NaN	0	0	1	1	2	0
6	2	2	8	53428	4127	7.6861231297953054309	0	1	552.90752899600192904	0	NaN	NaN	0	1	1	0	1	0
6	2	2	9	4787	36	7.6861694257240742445	1	1	4089.5545489911455661	1	131	418	0	0	1	1	2	0
6	2	2	10	24461	3625	7.6862157185096293688	1	1	1102.6922060118522495	1	2	NaN	1	1	1	1	2	0
6	2	2	11	42826	8509	7.6863083174685016274	0	1	701.89731000573374331	0	NaN	NaN	0	1	1	0	1	0
6	2	2	12	5260	7629	7.6863546004751697183	0	1	1054.5420100097544491	0	NaN	NaN	0	1	1	0	1	0
6	2	2	13	36398	1218	7.6864008946577087045	1	0	903.0116249923594296	0	170	NaN	0	1	1	0	1	0
6	2	2	14	6132	6410	7.686447192681953311	1	0	837.00630199746228755	0	267	NaN	0	1	1	0	1	0
6	2	2	15	13139	159	7.6864934893092140555	0	1	902.5633410201407969	0	NaN	NaN	0	1	1	0	1	0
6	2	2	16	36911	485	7.6865397770889103413	1	1	784.01090900297276676	0	47	NaN	1	1	0	1	2	0
6	2	2	17	51916	3127	7.6865860710386186838	0	1	852.329762012232095	0	NaN	NaN	0	1	1	0	1	0
6	2	2	18	35341	9744	7.6866323740687221289	0	1	807.77891501202248037	0	NaN	NaN	0	1	1	0	1	0
6	2	2	19	52854	3412	7.6866786676691845059	0	1	803.68195098708383739	0	NaN	NaN	0	1	1	0	1	0
6	2	2	20	46633	9461	7.6867249523056671023	0	1	913.61700400011613965	0	NaN	NaN	0	1	1	0	1	0
6	2	2	21	9357	4620	7.6868175406707450747	1	0	803.25730398180894554	0	181	NaN	0	1	1	0	1	0
6	2	2	22	59265	4250	7.6868638370651751757	0	1	802.01929298345930874	0	NaN	NaN	0	1	1	0	1	0
6	2	2	23	15770	8816	7.6869101308984681964	1	0	781.97639199788682163	0	272	NaN	0	1	1	0	1	0
6	2	2	24	28463	2587	7.6869564265944063663	1	1	826.52432299801148474	0	52	NaN	1	1	0	1	2	0
6	2	2	25	43709	7627	7.6870027288096025586	0	1	638.47887801239266992	0	NaN	NaN	0	1	1	0	1	0
6	2	2	26	25455	327	7.6870490218279883265	0	1	1005.5539029999636114	0	NaN	NaN	0	1	1	0	1	0
6	2	2	27	30659	7054	7.6870953143807128072	0	1	703.67879499099217355	0	NaN	NaN	0	1	1	0	1	0
6	2	2	28	72259	6637	7.6871416012290865183	0	0	1376.9325070024933666	0	NaN	NaN	0	0	0	1	2	0
6	2	2	29	2610	4945	7.6871878321981057525	0	1	707.02873900881968439	0	NaN	NaN	0	1	1	0	1	0
6	2	2	30	1111	3524	7.6872341318521648645	0	1	723.61315099988132715	0	NaN	NaN	0	1	1	0	1	0
6	2	2	31	35992	8854	7.6872804282465949655	0	1	882.53084398456849158	0	NaN	NaN	0	1	1	0	1	0
6	2	2	32	10448	3822	7.6873267199844121933	1	1	1013.2962389907334	0	123	172	0	0	0	1	2	0
6	2	2	33	14529	173	7.6873730258084833622	1	1	848.52150897495448589	0	120	244	0	0	0	1	2	0
6	2	2	34	48898	3975	7.6874656173167750239	0	1	771.15186801529489458	0	NaN	NaN	0	1	1	0	1	0
6	2	2	35	29158	8077	7.6875119160395115614	0	1	886.20616297703236341	0	NaN	NaN	0	1	1	0	1	0
6	2	2	36	43255	3935	7.6875582133652642369	0	1	1373.1277899933047593	0	NaN	NaN	0	1	1	0	1	0
6	2	2	37	49937	5208	7.6876045099925249815	1	1	766.13054500194266438	0	56	NaN	1	1	0	1	2	0
6	2	2	38	52072	3179	7.6876508083660155535	0	1	824.37656598631292582	0	NaN	NaN	0	1	1	0	1	0
6	2	2	39	31744	1189	7.687697108369320631	0	1	920.69578100927174091	0	NaN	NaN	0	1	1	0	1	0
6	2	2	40	23240	8403	7.6877434065099805593	0	1	697.20640699961222708	0	NaN	NaN	0	1	1	0	1	0
6	2	2	41	2256	1776	7.6877896925434470177	0	1	830.91031599906273186	0	NaN	NaN	0	1	1	0	1	0
6	2	2	42	48838	4187	7.6878359996480867267	0	1	675.15960699529387057	0	NaN	NaN	0	1	1	0	1	0
6	2	2	43	60534	3769	7.6878822975559160113	0	1	796.08581200591288507	0	NaN	NaN	0	1	1	0	1	0
6	2	2	44	38932	4812	7.6879748933715745807	0	1	761.93483598763123155	0	NaN	NaN	0	1	1	0	1	0
6	2	2	45	8637	6635	7.6880211824318394065	0	1	696.13288401160389185	0	NaN	NaN	0	1	1	0	1	0
6	2	2	46	53683	1490	7.6880674888379871845	1	0	955.49635399947874248	0	157	NaN	0	1	1	0	1	0
6	2	2	47	68997	9571	7.6881137855816632509	1	0	662.49602800235152245	0	280	NaN	0	1	1	0	1	0
6	2	2	48	40758	1386	7.6881600850028917193	1	1	753.36028897436335683	0	83	162	1	1	0	1	2	0
6	2	2	49	7175	5896	7.688206374179571867	1	0	1093.9273799885995686	0	331	NaN	0	1	1	0	1	0
6	2	2	50	28758	3371	7.6882526739500463009	0	1	1051.1022889986634254	0	NaN	NaN	0	1	1	0	1	0
6	2	2	51	34902	8303	7.6882989765144884586	0	1	841.77820201148279011	0	NaN	NaN	0	1	1	0	1	0
6	2	2	52	11685	8258	7.6883452759357169271	0	1	811.10950399306602776	0	NaN	NaN	0	1	2	0	1	0
6	2	2	53	28362	2854	7.6883913747733458877	0	1	990.69584399694576859	0	NaN	NaN	0	1	1	0	1	0
6	2	2	54	56770	5745	7.6884839416015893221	1	1	1103.3533409936353564	0	229	344	0	0	0	1	2	0
6	2	2	55	34251	8175	7.6885302306618541479	1	0	1623.4156670107040554	0	449	NaN	0	1	1	0	1	0
6	2	2	56	51645	6851	7.6885765331098809838	0	1	719.67021998716518283	0	NaN	NaN	0	1	1	0	1	0
6	2	2	57	9231	108	7.6886228263610973954	0	1	1054.4928290182724595	0	NaN	NaN	0	1	1	0	1	0
6	2	2	58	14595	175	7.6886691219406202435	1	1	691.76381599390879273	0	117	NaN	1	1	0	1	2	0
6	2	2	59	51645	6851	7.6887154156574979424	1	1	757.0400830009020865	0	2	NaN	1	1	0	1	2	0
6	2	2	60	34902	8303	7.6887617085594683886	1	1	719.61402799934148788	0	8	NaN	1	1	0	1	2	0
6	2	2	61	44769	3663	7.6888080005301162601	0	1	771.45109299453906715	0	NaN	NaN	0	1	1	0	1	0
6	2	2	62	10942	1826	7.6888542937813326716	1	1	767.91162800509482622	0	105	NaN	1	1	0	1	2	0
6	2	3	1	61749	848	7.6904151404742151499	1	1	873.20992499007843435	0	72	NaN	1	1	0	1	2	0
6	2	3	2	49342	1143	7.6904614373343065381	0	1	1015.0158930046018213	0	NaN	NaN	0	1	1	0	1	0
6	2	3	3	12977	2020	7.6905077426927164197	0	1	710.9611369960475713	0	NaN	NaN	0	1	1	0	1	0
6	2	3	4	37670	3783	7.6905540344305336475	0	1	758.13962999382056296	0	NaN	NaN	0	1	1	0	1	0
6	2	3	5	38932	4812	7.6906003379262983799	1	1	791.70688099111430347	0	22	NaN	1	1	0	1	2	0
6	2	3	6	9049	106	7.6906466294312849641	0	1	780.24718901724554598	0	NaN	NaN	0	1	1	0	1	0
6	2	3	7	5315	4361	7.6906929294345900416	0	1	859.24414100009016693	0	NaN	NaN	0	1	1	0	1	0
6	2	3	8	53604	1626	7.6907392285065725446	0	1	858.63450099714100361	0	NaN	NaN	0	1	1	0	1	0
6	2	3	9	56680	3996	7.6907855148892849684	1	1	1866.5417340234853327	1	568	NaN	0	0	1	1	2	0
6	2	3	10	49965	4292	7.6908318217610940337	0	1	800.75115797808393836	0	NaN	NaN	0	1	1	0	1	0
6	2	3	11	40034	8706	7.6909244215348735452	1	0	823.88772000558674335	0	204	NaN	0	1	1	0	1	0
6	2	3	12	22350	1420	7.6909706816077232361	0	1	1303.249377990141511	0	NaN	NaN	0	1	1	0	1	0
6	2	3	13	11021	9893	7.691017015022225678	0	1	910.90273699956014752	0	NaN	NaN	0	1	1	0	1	0
6	2	3	14	28143	7841	7.6910632787039503455	0	1	895.42429198627360165	0	NaN	NaN	0	1	1	0	1	0
6	2	3	15	31714	1803	7.6911096124676987529	0	1	936.11115298699587584	0	NaN	NaN	0	1	1	0	1	0
6	2	3	16	69848	1040	7.69115587102714926	1	0	1082.3620939918328077	0	232	NaN	0	1	1	0	1	0
6	2	3	17	24550	3284	7.691202209796756506	1	1	2023.9107650122605264	0	761	NaN	0	0	0	1	2	0
6	2	3	18	63819	1498	7.6912484539207071066	0	1	1016.0173170152120292	0	NaN	NaN	0	1	1	0	1	0
6	2	3	19	60484	2485	7.6912948045646771789	0	1	664.11628000787459314	0	NaN	NaN	0	1	1	0	1	0
6	2	3	20	40137	9008	7.6913873875746503472	1	1	925.66574999364092946	0	98	291	1	1	0	2	2	0
6	2	3	21	41444	9484	7.6914336276240646839	1	0	816.2866960046812892	0	195	567	0	1	1	0	1	0
6	2	3	22	5799	1994	7.6914799845544621348	1	1	1109.1009710216894746	0	199	NaN	0	0	0	1	2	0
6	2	3	23	46000	625	7.6915262126130983233	0	1	767.99910998670384288	0	NaN	NaN	0	1	1	0	1	0
6	2	3	24	70152	8819	7.6915725788567215204	1	1	776.42429000115953386	0	147	NaN	1	1	0	1	2	0
6	2	3	25	58451	7020	7.6916188022587448359	1	1	1084.0089299890678376	0	426	NaN	0	0	0	1	2	0
6	2	3	26	42852	570	7.6916651747887954116	0	1	716.24635101761668921	0	NaN	NaN	0	1	1	0	1	0
6	2	3	27	31758	7066	7.69171138945966959	0	1	753.79482799326069653	0	NaN	NaN	0	1	1	0	1	0
6	2	3	28	28594	7410	7.6917577703716233373	0	1	1017.9093000188004225	0	NaN	NaN	0	1	1	0	1	0
6	2	3	29	40260	7306	7.6918039761949330568	0	1	703.1983479973860085	0	NaN	NaN	0	1	1	0	1	0
6	2	3	30	20294	7785	7.6918965682853013277	1	1	923.53997600730508566	0	90	NaN	1	1	0	1	2	0
6	2	3	31	60890	4152	7.6919428707333281636	1	1	741.80105800041928887	0	148	NaN	1	1	0	1	2	0
6	2	3	32	23626	1645	7.6919891588622704148	1	1	766.51087700156494975	0	682	NaN	0	0	0	2	2	0
6	2	3	33	22516	276	7.6920354689937084913	0	1	788.94061801838688552	0	NaN	NaN	0	1	1	0	1	0
6	2	3	34	48834	1475	7.6920817471109330654	0	1	662.93174299062229693	0	NaN	NaN	0	1	1	0	1	0
6	2	3	35	47849	1102	7.6921280577080324292	0	1	754.99716101330704987	0	NaN	NaN	0	1	1	0	1	0
6	2	3	36	38932	4812	7.6921743388520553708	1	1	620.67187600769102573	0	30	53	1	1	0	1	2	0
6	2	3	37	60890	4152	7.6922206372255459428	1	1	603.26614600489847362	0	5	154	1	1	0	1	2	0
6	2	3	38	36911	485	7.6922668298939242959	1	1	688.95868200343102217	0	83	131	1	1	0	1	2	0
6	2	3	39	40841	534	7.6923131186049431562	0	1	1044.0622000023722649	0	NaN	NaN	0	1	1	0	1	0
6	2	3	40	31062	7561	7.6923594194231554866	1	1	902.01761401840485632	0	173	296	0	0	0	1	2	0
6	2	3	41	1761	7116	7.6924057131400331855	0	1	1224.501950986450538	0	NaN	NaN	0	1	1	0	1	0
6	2	3	42	37684	4035	7.6924982935888692737	0	1	752.96633999096229672	0	NaN	NaN	0	1	1	0	1	0
6	2	3	43	52694	6077	7.6925445938250049949	0	0	2753.6930719797965139	1	NaN	NaN	0	0	1	1	2	0
6	2	3	44	65540	4593	7.6925908899866044521	0	1	648.03019899409264326	0	NaN	NaN	0	1	1	0	1	0
6	2	3	45	8257	4442	7.6926371802110224962	0	1	976.07611102284863591	0	NaN	NaN	0	1	1	0	1	0
6	2	3	46	43500	9130	7.6926834698533639312	1	1	1152.8999959991779178	0	137	NaN	1	1	0	1	2	0
6	2	3	47	61749	848	7.692729771020822227	1	1	564.54620900331065059	0	45	118	1	1	0	1	2	0
6	2	3	48	37533	5221	7.6927760684629902244	0	1	843.7460229906719178	0	NaN	NaN	0	1	1	0	1	0
6	2	3	49	59997	5313	7.6928223598515614867	1	1	792.04251998453401029	0	133	163	1	1	0	1	2	0
6	2	3	50	72345	4893	7.6928686534520238638	0	1	1338.4132130013313144	0	NaN	NaN	0	1	1	0	1	0
6	2	3	51	9028	105	7.6929149414645507932	0	1	771.66617999318987131	0	NaN	NaN	0	1	1	0	1	0
6	2	3	52	65772	1937	7.6929612347157672048	0	1	1307.7896419854369015	0	NaN	NaN	0	1	1	0	1	0
6	2	3	53	49055	4900	7.693007537629455328	1	0	790.36292200908064842	0	802	NaN	0	1	1	0	1	0
6	2	3	54	51645	6851	7.693100124248303473	1	1	738.06765099288895726	0	56	59	1	1	0	1	2	0
6	2	3	55	12685	6265	7.6931464223889634013	0	1	764.25069000106304884	0	NaN	NaN	0	1	1	0	1	0
6	2	3	56	25725	1069	7.6931927073746919632	1	0	724.72987600485794246	0	276	NaN	0	1	1	0	1	0
6	2	3	57	54549	2195	7.6932390071451663971	1	1	950.47547598369419575	0	164	NaN	1	1	0	1	2	0
6	2	3	58	72326	2484	7.693285298184491694	0	1	818.13229501130990684	0	NaN	NaN	0	1	1	0	1	0
6	2	3	59	36428	3699	7.6933315887581557035	0	1	637.23913900321349502	0	NaN	NaN	0	1	1	0	1	0
6	2	3	60	2658	3940	7.6933778849197551608	0	1	958.06923499912954867	0	NaN	NaN	0	1	1	0	1	0
6	2	3	61	30659	7054	7.6934241760754957795	1	1	761.17875700583681464	0	95	NaN	1	1	0	1	2	0
6	2	3	62	14928	2492	7.6934704788727685809	0	1	666.55798500869423151	0	NaN	NaN	0	1	1	0	1	0
6	2	3	63	5260	7629	7.693516675615683198	1	1	701.756380993174389	0	112	NaN	1	1	0	1	2	0
6	2	4	1	61985	5273	7.6949715591035783291	1	0	888.08222999796271324	0	247	NaN	0	1	1	0	1	0
6	2	4	2	14470	4467	7.6950178652768954635	0	1	952.61657200171612203	0	NaN	NaN	0	1	1	0	1	0
6	2	4	3	3445	5604	7.6950641445582732558	1	1	703.63150900811888278	0	134	NaN	1	1	0	1	2	0
6	2	4	4	53428	4127	7.6951104438630864024	1	1	707.13004199205897748	0	120	NaN	1	1	0	1	2	0
6	2	4	5	38965	5242	7.6951567388605326414	0	1	1329.3145710194949061	0	NaN	NaN	0	1	1	0	1	0
6	2	4	6	53892	742	7.695203029434196651	0	1	684.97219501296058297	0	NaN	NaN	0	1	1	0	1	0
6	2	4	7	70880	5995	7.6952493209391832352	0	1	668.05316798854619265	0	NaN	NaN	0	1	1	0	1	0
6	2	4	8	26922	6183	7.6952956111636012793	0	1	662.65829699113965034	0	NaN	NaN	0	1	1	0	1	0
6	2	4	9	41921	3974	7.6953419062774628401	0	1	646.03986201109364629	0	NaN	NaN	0	1	1	0	1	0
6	2	4	10	50499	3927	7.6954344953410327435	0	1	842.87916400353424251	0	NaN	NaN	0	1	1	0	1	0
6	2	4	11	63294	9913	7.6954807896399870515	1	0	826.88016598694957793	0	874	NaN	0	1	1	0	1	0
6	2	4	12	31758	7066	7.6955270880134776235	1	1	648.41649902518838644	0	47	NaN	1	1	0	1	2	0
6	2	4	13	61874	853	7.6955733797512948513	0	1	724.97669002041220665	0	NaN	NaN	0	1	1	0	1	0
6	2	4	14	60221	7979	7.6956196725368499756	0	1	787.33098198426887393	0	NaN	NaN	0	1	1	0	1	0
6	2	4	15	53141	2247	7.6956659664865583181	0	1	648.40555301634594798	0	NaN	NaN	0	1	1	0	1	0
6	2	4	16	51747	4061	7.6957122619496658444	1	1	831.32873201975598931	0	855	NaN	0	0	0	1	2	0
6	2	4	17	68	7697	7.6957585531054064631	1	0	649.20445100869983435	0	392	NaN	0	1	1	0	1	0
6	2	4	18	6917	2287	7.6958048456581309438	0	1	712.99190400168299675	0	NaN	NaN	0	1	1	0	1	0
6	2	4	19	51878	9977	7.6958974392618983984	0	1	670.03302898956462741	0	NaN	NaN	0	1	1	0	1	0
6	2	4	20	1614	6728	7.6959437360055744648	0	1	667.69382101483643055	0	NaN	NaN	0	1	1	0	1	0
6	2	4	21	1707	5811	7.6959900298388674855	0	1	811.81655501131899655	0	NaN	NaN	0	1	1	0	1	0
6	2	4	22	40556	3586	7.6960362264653667808	0	1	801.75398598657920957	0	NaN	NaN	0	1	1	0	1	0
6	2	4	23	13396	2584	7.6960825211135670543	0	1	608.6518079973757267	0	NaN	NaN	0	1	1	0	1	0
6	2	4	24	69663	5905	7.696128808194771409	0	1	670.03717500483617187	0	NaN	NaN	0	1	1	0	1	0
6	2	4	25	44669	6619	7.6961751125054433942	0	1	687.35751300118863583	0	NaN	NaN	0	1	1	0	1	0
6	2	4	26	61985	5273	7.6962213984224945307	1	1	711.13682398572564125	0	24	272	1	1	0	1	2	0
6	2	4	27	49055	4900	7.6962676901603117585	1	1	847.49282398843206465	0	36	839	1	1	0	1	2	0
6	2	4	28	3922	1482	7.6963139920262619853	1	0	779.7429799975361675	0	323	NaN	0	1	1	0	1	0
6	2	4	29	25025	6719	7.6963602853938937187	0	1	908.90110298641957343	0	NaN	NaN	0	1	1	0	1	0
6	2	4	30	58451	7020	7.6964065756183117628	1	1	703.01366801140829921	0	67	494	1	1	0	1	2	0
6	2	4	31	34605	5563	7.6964991661952808499	0	0	919.10516298958100379	0	NaN	NaN	0	0	0	1	2	0
6	2	4	32	71184	7950	7.6965454551391303539	0	1	728.6386599880643189	0	NaN	NaN	0	1	1	0	1	0
6	2	4	33	62159	3249	7.6965917565394192934	0	1	679.45746399345807731	0	NaN	NaN	0	1	1	0	1	0
6	2	4	34	11182	8261	7.6966380482772365212	0	1	814.88632000400684774	0	NaN	NaN	0	1	1	0	1	0
6	2	4	35	40803	8768	7.6966843442060053349	0	1	826.51380699826404452	0	NaN	NaN	0	1	1	0	1	0
6	2	4	36	51878	9977	7.6967306322185322642	1	1	752.91412297519855201	0	16	NaN	1	1	0	1	2	0
6	2	4	37	4548	9537	7.6967769259354099631	0	1	702.82353999209590256	0	NaN	NaN	0	1	1	0	1	0
6	2	4	38	16430	7895	7.6968232244253158569	0	1	773.36701899184845388	0	NaN	NaN	0	1	1	0	1	0
6	2	4	39	53470	2206	7.6968695152318105102	0	1	723.41077399323694408	0	NaN	NaN	0	1	1	0	1	0
6	2	4	40	11203	9316	7.6969158161664381623	0	1	691.64577100309543312	0	NaN	NaN	0	1	1	0	1	0
6	2	4	41	47884	6378	7.6969621034804731607	1	0	804.56459199194796383	0	259	NaN	0	1	1	0	1	0
6	2	4	42	71452	4567	7.6970084074418991804	0	1	1076.0009200021158904	0	NaN	NaN	0	1	1	0	1	0
6	2	4	43	71184	7950	7.697100986959412694	1	1	769.96472998871468008	0	10	NaN	1	1	0	2	2	0
6	2	4	44	44450	8037	7.6971472806762903929	0	1	892.38603701232932508	0	NaN	NaN	0	1	1	0	1	0
6	2	4	45	22172	4211	7.6971935835899785161	1	0	727.49576298519968987	0	404	NaN	0	1	1	0	1	0
6	2	4	46	21764	2604	7.6972398749785497785	1	1	1281.2332730100024492	1	502	516	0	0	1	1	2	0
6	2	4	47	62724	3070	7.6972860721871256828	0	1	671.58093900070525706	0	NaN	NaN	0	1	1	0	1	0
6	2	4	48	26224	5826	7.6973323648562654853	0	1	803.43833501683548093	0	NaN	NaN	0	1	1	0	1	0
6	2	4	49	59552	2750	7.697378653334453702	0	1	730.19231698708608747	0	NaN	NaN	0	1	1	0	1	0
6	2	4	50	62916	4522	7.6974249504273757339	1	0	885.25147899053990841	0	300	317	0	1	1	0	1	0
6	2	4	51	66096	5972	7.6974712496157735586	0	1	688.27091000275686383	0	NaN	NaN	0	1	1	0	1	0
6	2	4	52	23240	8403	7.6975175379775464535	1	1	847.53992201876826584	0	136	NaN	1	1	0	1	2	0
6	2	4	53	53892	742	7.6975638316944241524	1	1	735.33262201817706227	0	46	NaN	1	1	0	1	2	0
6	2	4	54	8982	3350	7.6976101316977292299	0	1	1414.40566600067541	0	NaN	NaN	0	1	1	0	1	0
6	2	4	55	50493	6169	7.6977027234388515353	1	0	729.55735499272122979	0	238	458	1	0	1	0	1	0
6	2	4	56	53859	740	7.6977490161079913378	0	1	851.51902900543063879	0	NaN	NaN	0	1	1	0	1	0
6	2	4	57	2609	4272	7.6977952995803207159	1	0	684.20566699933260679	0	287	NaN	0	1	1	0	1	0
6	2	4	58	67538	5670	7.6978416021447628736	1	0	786.72281300532631576	0	301	NaN	0	1	1	0	1	0
6	2	4	59	30848	412	7.6978878887603059411	0	1	759.71720399684272707	0	NaN	NaN	0	1	1	0	1	0
6	2	4	60	32735	7873	7.6979341901605948806	0	1	771.32508100476115942	0	NaN	NaN	0	1	1	0	1	0
6	2	4	61	22783	282	7.6979804846923798323	0	1	811.24195799930021167	0	NaN	NaN	0	1	1	0	1	0
6	2	4	62	36398	1218	7.6980267729377374053	1	0	606.23988800216466188	0	173	344	1	0	1	0	1	0
6	2	5	1	23240	8403	7.7003518595593050122	1	1	913.46790399984456599	0	10	147	1	1	0	1	2	0
6	2	5	2	11204	1122	7.7003982288297265768	1	0	666.29233400453813374	0	312	NaN	0	1	1	0	1	0
6	2	5	3	53859	740	7.7004444475751370192	1	1	688.423187006264925	0	8	NaN	1	1	0	1	2	0
6	2	5	4	18367	6328	7.7004907496739178896	0	1	1108.2669979950878769	0	NaN	NaN	0	1	1	0	1	0
6	2	5	5	46168	9548	7.7005370295373722911	0	1	649.23196999006904662	0	NaN	NaN	0	1	1	0	1	0
6	2	5	6	53151	9510	7.7005833381554111838	0	1	840.24279701407067478	0	NaN	NaN	0	1	1	0	1	0
6	2	5	7	5315	4361	7.7006296183681115508	1	1	759.8577530006878078	0	124	NaN	1	1	0	1	2	0
6	2	5	8	26067	1368	7.7006759260548278689	0	1	722.07431300194002688	0	NaN	NaN	0	1	1	0	1	0
6	2	5	9	46571	7912	7.700722205569036305	0	1	637.13151597767136991	0	NaN	NaN	0	1	1	0	1	0
6	2	5	10	8403	7719	7.7007685187272727489	0	1	681.06456601526588202	0	NaN	NaN	0	1	2	0	1	0
6	2	5	11	30082	402	7.7008611004566773772	0	1	904.84972498961724341	0	NaN	NaN	0	1	1	0	1	0
6	2	5	12	24797	6404	7.7009073793888092041	0	1	949.66799800749868155	0	NaN	NaN	0	1	1	0	1	0
6	2	5	13	34902	8303	7.7009536913828924298	1	1	718.61422501388005912	0	139	148	1	1	0	1	2	0
6	2	5	14	41837	2937	7.7009999770671129227	0	1	777.20833799685351551	0	NaN	NaN	0	1	1	0	1	0
6	2	5	15	52977	9883	7.7010461741592735052	0	1	626.44915300188586116	0	NaN	NaN	0	1	1	0	1	0
6	2	5	16	51916	3127	7.7010924653150141239	1	1	761.01016800384968519	0	185	NaN	1	1	0	1	2	0
6	2	5	17	42852	570	7.7011387590318918228	1	1	828.35780997993424535	0	115	NaN	1	1	0	1	2	0
6	2	5	18	5879	55	7.7011850514682009816	0	1	724.38388201408088207	0	NaN	NaN	0	1	1	0	1	0
6	2	5	19	12729	4918	7.701231345534324646	0	1	683.63117199623957276	0	NaN	NaN	0	1	1	0	1	0
6	2	5	20	15119	7027	7.7012776461197063327	0	1	725.74331698706373572	0	NaN	NaN	0	1	1	0	1	0
6	2	5	21	56632	1905	7.7013702356489375234	0	1	1231.406956008868292	0	NaN	NaN	0	1	1	0	1	0
6	2	5	22	45497	8442	7.7014165207510814071	0	1	652.70332299405708909	0	NaN	NaN	0	1	1	0	1	0
6	2	5	23	34436	5111	7.7014628227334469557	0	1	658.26840698719024658	0	NaN	NaN	0	1	1	0	1	0
6	2	5	24	50697	6764	7.7015091170324012637	0	1	634.83988901134580374	0	NaN	NaN	0	1	1	0	1	0
6	2	5	25	3095	9665	7.7015554035315290093	0	1	785.62573401723057032	0	NaN	NaN	0	1	1	0	1	0
6	2	5	26	65157	6618	7.7016017043497413397	0	1	789.18631302076391876	0	NaN	NaN	0	1	1	0	1	0
6	2	5	27	42531	8844	7.7016479909652844071	0	1	726.66208099690265954	0	NaN	NaN	0	1	1	0	1	0
6	2	5	28	42911	5631	7.7016942918999120593	0	0	1032.4341109953820705	0	NaN	NaN	0	0	0	1	2	0
6	2	5	29	26436	349	7.7017405849182978272	0	1	948.15281798946671188	0	NaN	NaN	0	1	1	0	1	0
6	2	5	30	16091	6574	7.7018331767758354545	0	1	750.30068500200286508	0	NaN	NaN	0	1	1	0	1	0
6	2	5	31	17860	9972	7.7018794651376083493	1	0	786.40245200949721038	0	829	NaN	0	1	1	0	1	0
6	2	5	32	40608	6444	7.7019257533829659224	0	1	767.56503098295070231	0	NaN	NaN	0	1	1	0	1	0
6	2	5	33	56848	2830	7.7019720552489161491	1	0	814.45107099716551602	0	402	NaN	0	1	1	0	1	0
6	2	5	34	59117	8399	7.702018349664285779	0	1	703.3659120206721127	0	NaN	NaN	0	1	1	0	1	0
6	2	5	35	20229	4244	7.7020646373275667429	0	1	793.81231500883586705	0	NaN	NaN	0	1	1	0	1	0
6	2	5	36	57233	3515	7.7021109387278556824	0	1	821.41367599251680076	0	NaN	NaN	0	1	1	0	1	0
6	2	5	37	1761	7116	7.7021572318626567721	1	1	840.1810669747646898	0	120	NaN	1	1	0	1	2	0
6	2	5	38	15248	8678	7.7022035245317965746	0	1	704.05750098871067166	0	NaN	NaN	0	1	1	0	1	0
6	2	5	39	51827	5890	7.702249814523383975	0	1	614.38317500869743526	0	NaN	NaN	0	1	1	0	1	0
6	2	5	40	9922	4838	7.7022961127804592252	0	1	903.23132200865074992	0	NaN	NaN	0	1	1	0	1	0
6	2	5	41	41659	3861	7.7023886056849732995	0	1	621.13721398054622114	0	NaN	NaN	0	1	1	0	1	0
6	2	5	42	69791	3728	7.7024348992854356766	0	1	753.3856990048661828	0	NaN	NaN	0	1	1	0	1	0
6	2	5	43	35926	7625	7.7024811879964545369	0	1	790.50956599530763924	0	NaN	NaN	0	1	1	0	1	0
6	2	5	44	30209	6361	7.7025274889310821891	0	1	611.89755800296552479	0	NaN	NaN	0	1	1	0	1	0
6	2	5	45	46204	4637	7.7025737829972058535	1	0	791.69379299855791032	0	375	NaN	0	1	1	0	1	0
6	2	5	46	13641	2812	7.702620079624466598	0	1	781.22413597884587944	0	NaN	NaN	0	1	1	0	1	0
6	2	5	47	59337	1303	7.7026663707802072167	0	1	640.1930559950415045	0	NaN	NaN	0	1	1	0	1	0
6	2	5	48	23102	7545	7.7027126569300889969	0	1	816.63543099421076477	0	NaN	NaN	0	1	1	0	1	0
6	2	5	49	51062	2298	7.7027589583303779364	0	1	705.8493780205026269	0	NaN	NaN	0	1	1	0	1	0
6	2	5	50	42212	5401	7.7028515475103631616	0	1	714.73464698647148907	0	NaN	NaN	0	1	1	0	1	0
6	2	5	51	36678	9776	7.702897840877994895	0	1	839.01714600506238639	0	NaN	NaN	0	1	1	0	1	0
6	2	5	52	36098	1056	7.7029441396007314324	0	1	810.87744000251404941	0	NaN	NaN	0	1	1	0	1	0
6	2	5	53	70880	5995	7.7029904348310083151	1	1	748.68370499461889267	0	107	NaN	1	1	0	1	2	0
6	2	5	54	21734	5431	7.7030367216793820262	0	1	741.70365699683316052	0	NaN	NaN	0	1	1	0	1	0
6	2	5	55	23129	8593	7.7030830112053081393	0	1	725.03648698329925537	0	NaN	NaN	0	1	1	0	1	0
6	2	5	56	3170	9719	7.7031293130712583661	0	1	702.26028599427081645	0	NaN	NaN	0	1	1	0	1	0
6	2	5	57	12295	6148	7.7031756024807691574	1	0	661.19638501550070941	0	449	NaN	0	1	1	0	1	0
6	2	5	58	28391	2687	7.7032219007378444076	0	1	655.64211801392957568	0	NaN	NaN	0	1	1	0	1	0
6	2	5	59	48838	4187	7.7032681946875527501	1	0	1004.1636569949332625	0	203	NaN	1	0	1	0	1	0
6	2	5	60	64237	3765	7.7033144900342449546	0	1	743.52681799791753292	0	NaN	NaN	0	1	1	0	1	0
6	2	5	61	29850	4431	7.7033607828198000789	0	1	908.66512298816815019	0	NaN	NaN	0	1	1	0	1	0
6	2	5	62	25725	1069	7.7034070771187543869	1	1	764.2800640023779124	0	130	407	1	1	0	1	2	0
6	2	5	63	49948	7531	7.7034533731639385223	0	1	746.92422698717564344	0	NaN	NaN	0	1	1	0	1	0
6	2	6	1	70880	5995	7.7049565716879442334	1	1	690.08515600580722094	0	10	118	1	1	0	1	2	0
6	2	6	2	43120	8152	7.7050028662197291851	0	1	831.56034600688144565	0	NaN	NaN	0	1	1	0	1	0
6	2	6	3	56182	3854	7.7050491617992520332	0	1	668.95860800286754966	0	NaN	NaN	0	1	1	0	1	0
6	2	6	4	54837	2311	7.7050954560982063413	0	1	755.71305499761365354	0	NaN	NaN	0	1	1	0	1	0
6	2	6	5	72345	4893	7.7051417493494227529	1	0	602.04533601063303649	0	142	NaN	1	0	1	0	1	0
6	2	6	6	519	1470	7.7051880357321351767	0	1	663.07736298767849803	0	NaN	NaN	0	1	1	0	1	0
6	2	6	7	56848	2830	7.7052343377145007253	1	1	717.65624798717908561	0	36	439	1	1	0	1	2	0
6	2	6	8	38818	511	7.7052806327119469643	1	1	652.21863400074653327	0	550	NaN	0	0	0	1	2	0
6	2	6	9	59581	1066	7.7053269268944859505	0	1	667.44885899242945015	0	NaN	NaN	0	1	1	0	1	0
6	2	6	10	58897	8504	7.7053732195636257529	0	1	833.33234200836159289	0	NaN	NaN	0	1	1	0	1	0
6	2	6	11	54837	2311	7.7054195188684388995	1	1	829.0774729975964874	0	6	NaN	1	1	0	1	2	0
6	2	6	12	64538	9040	7.7055120923323556781	0	1	675.08989499765448272	0	NaN	NaN	0	1	1	0	1	0
6	2	6	13	71250	8422	7.7055583973415195942	0	1	650.40424902690574527	0	NaN	NaN	0	1	1	0	1	0
6	2	6	14	9922	4838	7.7056046843063086271	1	1	687.00391499442048371	0	36	NaN	1	1	0	1	2	0
6	2	6	15	39079	7165	7.7056509857065975666	0	1	883.2814750203397125	0	NaN	NaN	0	1	1	0	1	0
6	2	6	16	70354	4665	7.7056972746504470706	1	1	1188.9634640247095376	0	338	NaN	0	0	0	1	2	0
6	2	6	17	22516	276	7.7057435732567682862	1	1	818.97467601811513305	0	171	NaN	1	1	0	1	2	0
6	2	6	18	72468	6487	7.7057898669736459851	0	1	755.74262201553210616	0	NaN	NaN	0	1	1	0	1	0
6	2	6	19	25846	8383	7.7058361562667414546	0	1	778.33169599762186408	0	NaN	NaN	0	1	1	0	1	0
6	2	6	20	60292	4095	7.7058824532432481647	1	0	936.12885900074616075	0	533	NaN	0	1	1	0	1	0
6	2	6	21	6474	7176	7.7059287443989887834	0	1	1007.2998219984583557	0	NaN	NaN	0	1	1	0	1	0
6	2	6	22	70250	5279	7.7060213307850062847	0	1	978.1605880125425756	0	NaN	NaN	0	1	1	0	1	0
6	2	6	23	41659	3861	7.7060676245018839836	1	1	748.1161949981469661	0	44	NaN	1	1	0	1	2	0
6	2	6	24	20670	7300	7.7061138225253671408	1	0	630.66719099879264832	0	950	NaN	0	1	1	0	1	0
6	2	6	25	46705	9879	7.7061601210152730346	0	1	689.56041298224590719	0	NaN	NaN	0	1	1	0	1	0
6	2	6	26	13118	5288	7.7062064155470579863	0	1	674.54028601059690118	0	NaN	NaN	0	1	1	0	1	0
6	2	6	27	17215	8201	7.7062527039088308811	0	1	668.32540900213643909	0	NaN	NaN	0	1	1	0	1	0
6	2	6	28	11827	9458	7.7062990019330754876	0	1	848.85478398064151406	0	NaN	NaN	0	1	1	0	1	0
6	2	6	29	51078	700	7.7063453015871345997	0	1	876.7548339965287596	0	NaN	NaN	0	1	1	0	1	0
6	2	6	30	23102	7545	7.7063915928592905402	1	1	1015.5243159970268607	0	44	NaN	1	1	0	1	2	0
6	2	6	31	70433	9753	7.7064378873910754919	0	1	861.94601599709130824	0	NaN	NaN	0	1	1	0	1	0
6	2	6	32	26705	2981	7.7064841825049370527	0	1	842.24090899806469679	0	NaN	NaN	0	1	1	0	1	0
6	2	6	33	54837	2311	7.7065304768038913608	1	1	659.45166899473406374	0	21	28	1	1	0	1	2	0
6	2	6	34	47849	1102	7.7066230656346306205	1	1	848.06603999459184706	0	186	NaN	1	1	0	1	2	0
6	2	6	35	39525	2186	7.7066693523665890098	1	1	911.55303199775516987	0	475	638	0	0	0	1	2	0
6	2	6	36	576	5676	7.7067156520206481218	0	1	702.57992600090801716	0	NaN	NaN	0	1	1	0	1	0
6	2	6	37	24997	2841	7.7067619477165862918	0	1	681.51902500540018082	0	NaN	NaN	0	1	1	0	1	0
6	2	6	38	56897	9452	7.7068082415498793125	0	1	736.02275000303052366	0	NaN	NaN	0	1	1	0	1	0
6	2	6	39	61022	6883	7.7068545306101441383	0	1	754.44509199587628245	0	NaN	NaN	0	1	1	0	1	0
6	2	6	40	6891	5686	7.7069008287508040667	0	1	778.32523701363243163	0	NaN	NaN	0	1	1	0	1	0
6	2	6	41	23929	1448	7.7069471289869397879	0	1	863.40299600851722062	0	NaN	NaN	0	1	1	0	1	0
6	2	6	42	38221	2353	7.7069934164173901081	0	1	688.18085998645983636	0	NaN	NaN	0	1	1	0	1	0
6	2	6	43	71485	7726	7.7070397131610661745	0	1	626.20440698810853064	0	NaN	NaN	0	1	1	0	1	0
6	2	6	44	39212	6890	7.7071322971023619175	0	1	778.48281801561824977	0	NaN	NaN	0	1	1	0	1	0
